category,probe_path,subcategory,fixation_duration,label,trials.thisRepN,trials.thisTrialN,trials.thisN,trials.thisIndex,image_onset_time,response_window,correctAns,probe_onset,discrim_resptime,response.corr,response.keys,response.rt,visible_resptime,visible.keys,visible.corr,visible.rt,probeFrames,jitter2,n_square,experiment_color,frameRate,date,session,image_size,premask_dur,probeFrames,participant,expName,postmask_dur,
Nonliving_Things,../experiment_stimuli/bw_bc_bl/Nonliving_Things/Buildings/house_26.jpg,Buildings,0,house,0,0,0,41,3.71670591389,V_nV,2,3.73647955153,4.99939372786,1,2,0.491290215636,5.52155089658,2,0,0.15053633647,5,6.5,32,bw,99.7830383337,2019_may_23_1058,018,256,20,5,clara,Experiment_EEG_version,20,
Nonliving_Things,../experiment_stimuli/bw_bc_bl/Nonliving_Things/Buildings/cathedral_16.jpg,Buildings,0,cathedral,0,1,1,14,7.40472073108,V_nV,2,7.40973291127,8.66737899766,1,2,0.411123277619,9.09906167258,2,0,0.18061340577,5,7.5,32,bw,99.7830383337,2019_may_23_1058,018,256,20,5,clara,Experiment_EEG_version,20,
Nonliving_Things,../experiment_stimuli/bw_bc_bl/Nonliving_Things/Kitchen_Uten/frying-pan_10.jpg,Kitchen_Uten,0,frying-pan,0,2,2,31,11.0125592384,V_nV,2,11.017880192,12.2651855655,1,2,0.350990029518,12.6367245268,2,0,0.300868694903,5,6.0,32,bw,99.7830383337,2019_may_23_1058,018,256,20,5,clara,Experiment_EEG_version,20,
Living_Things,../experiment_stimuli/bw_bc_bl/Living_Things/Animals/hippopotamus_20.jpg,Animals,0,hippopotamus,0,3,3,39,14.6705137868,V_nV,1,14.6755545682,15.9131160134,0,2,0.791786987102,16.7254559172,1,1,0.040305810282,5,6.0,32,bw,99.7830383337,2019_may_23_1058,018,256,20,5,clara,Experiment_EEG_version,20,
Living_Things,../experiment_stimuli/bw_bc_bl/Living_Things/Birds/pelican_14.jpg,Birds,0,pelican,0,4,4,60,18.4988309068,V_nV,1,18.5044078007,19.7514597869,1,1,1.0926096004,20.8646092396,1,1,0.872116472339,5,6.0,32,bw,99.7830383337,2019_may_23_1058,018,256,20,5,clara,Experiment_EEG_version,20,
Living_Things,../experiment_stimuli/bw_bc_bl/Living_Things/Animals/armadillo_0.jpg,Animals,0,armadillo,0,5,5,1,23.4696403602,nV_V,2,23.4744463626,24.7523302119,1,2,0.631609886652,25.4044984397,2,0,0.170588290319,5,6.0,32,bw,99.7830383337,2019_may_23_1058,018,256,20,5,clara,Experiment_EEG_version,20,
Nonliving_Things,../experiment_stimuli/bw_bc_bl/Nonliving_Things/Furniture/bookcase_2.jpg,Furniture,0,bookcase,0,6,6,8,27.3079806601,V_nV,2,27.3128681465,28.5806505915,1,2,0.681711346144,29.2829199885,3,0,0.0603529587388,5,7.0,32,bw,99.7830383337,2019_may_23_1058,018,256,20,5,clara,Experiment_EEG_version,20,
Nonliving_Things,../experiment_stimuli/bw_bc_bl/Nonliving_Things/Musical_Inst/guitar_17.jpg,Musical_Inst,0,guitar,0,7,7,36,31.0761724382,nV_V,1,31.0818153047,32.3287943183,0,2,1.0323074304,33.3816609501,3,0,0.15056447871,5,8.0,32,bw,99.7830383337,2019_may_23_1058,018,256,20,5,clara,Experiment_EEG_version,20,
Nonliving_Things,../experiment_stimuli/bw_bc_bl/Nonliving_Things/Kitchen_Uten/cup_20.jpg,Kitchen_Uten,0,cup,0,8,8,22,35.2652756621,nV_V,1,35.2700291353,36.4978581825,1,1,0.681722420966,37.2001385267,1,1,0.67168368469,5,6.0,32,bw,99.7830383337,2019_may_23_1058,018,256,20,5,clara,Experiment_EEG_version,20,
Living_Things,../experiment_stimuli/bw_bc_bl/Living_Things/Marine_creatures/crab_18.jpg,Marine_creatures,0,crab,0,9,9,21,39.6047082816,nV_V,2,39.6095404681,40.8473163804,0,1,0.350986646255,41.2188551496,1,1,0.150540964212,5,6.0,32,bw,99.7830383337,2019_may_23_1058,018,256,20,5,clara,Experiment_EEG_version,20,
Living_Things,../experiment_stimuli/bw_bc_bl/Living_Things/Marine_creatures/whale_6.jpg,Marine_creatures,0,whale,0,10,10,94,43.1023154387,V_nV,1,43.1076943241,44.354937563,0,2,0.391088241013,44.7665997164,1,1,0.23071462079,5,6.0,32,bw,99.7830383337,2019_may_23_1058,018,256,20,5,clara,Experiment_EEG_version,20,
Living_Things,../experiment_stimuli/bw_bc_bl/Living_Things/Birds/pigeon_17.jpg,Birds,0,pigeon,0,11,11,63,46.7302092598,V_nV,1,46.7350946974,48.0128878297,1,1,0.330947813112,48.3644053785,1,1,0.721880368423,5,6.0,32,bw,99.7830383337,2019_may_23_1058,018,256,20,5,clara,Experiment_EEG_version,20,
Nonliving_Things,../experiment_stimuli/bw_bc_bl/Nonliving_Things/Buildings/castle_22.jpg,Buildings,0,castle,0,12,12,12,50.8190913624,V_nV,2,50.8245430812,52.1318440279,1,2,0.691725431709,52.8441053235,3,0,0.170586541994,5,7.5,32,bw,99.7830383337,2019_may_23_1058,018,256,20,5,clara,Experiment_EEG_version,20,
Living_Things,../experiment_stimuli/bw_bc_bl/Living_Things/Animals/lynx_24.jpg,Animals,0,lynx,0,13,13,50,54.7476282953,nV_V,2,54.7531864864,56.0403432103,1,2,0.58148588636,56.6423831745,3,0,0.150605448522,5,8.0,32,bw,99.7830383337,2019_may_23_1058,018,256,20,5,clara,Experiment_EEG_version,20,
Nonliving_Things,../experiment_stimuli/bw_bc_bl/Nonliving_Things/Buildings/church_20.jpg,Buildings,0,church,0,14,14,17,58.5258346067,V_nV,2,58.5306461994,59.7884918167,1,2,0.41113450285,60.2201863411,3,0,0.120484740706,5,6.0,32,bw,99.7830383337,2019_may_23_1058,018,256,20,5,clara,Experiment_EEG_version,20,
Living_Things,../experiment_stimuli/bw_bc_bl/Living_Things/Birds/kiwi_6.jpg,Birds,0,kiwi,0,15,15,44,62.0735534786,V_nV,1,62.0783121057,63.3061333376,1,1,0.531379675493,63.8580627865,1,1,0.250783848111,5,7.5,32,bw,99.7830383337,2019_may_23_1058,018,256,20,5,clara,Experiment_EEG_version,20,
Nonliving_Things,../experiment_stimuli/bw_bc_bl/Nonliving_Things/Tools/hammer_1.jpg,Tools,0,hammer,0,16,16,37,65.8417432192,V_nV,2,65.8466560058,67.1043896209,1,2,0.310897288378,67.4358459041,1,1,0.110475015361,5,7.0,32,bw,99.7830383337,2019_may_23_1058,018,256,20,5,clara,Experiment_EEG_version,20,
Nonliving_Things,../experiment_stimuli/bw_bc_bl/Nonliving_Things/Musical_Inst/saxophone_5.jpg,Musical_Inst,0,saxophone,0,17,17,72,69.2792145568,nV_V,1,69.2842493835,70.5619066418,1,1,1.76406734902,72.3465159819,3,0,0.12048065057,5,7.0,32,bw,99.7830383337,2019_may_23_1058,018,256,20,5,clara,Experiment_EEG_version,20,
Living_Things,../experiment_stimuli/bw_bc_bl/Living_Things/Marine_creatures/narwhal_13.jpg,Marine_creatures,0,narwhal,0,18,18,55,74.1999128859,nV_V,2,74.2062908397,75.4525375029,0,1,0.511347417487,75.9844400166,3,0,0.120531240012,5,6.5,32,bw,99.7830383337,2019_may_23_1058,018,256,20,5,clara,Experiment_EEG_version,20,
Nonliving_Things,../experiment_stimuli/bw_bc_bl/Nonliving_Things/Vehicles/motorbike_25.jpg,Vehicles,0,motorbike,0,19,19,54,77.8378224208,V_nV,2,77.8440962972,79.0704055426,1,2,0.551414734451,79.6423787687,2,0,0.210688238265,5,7.0,32,bw,99.7830383337,2019_may_23_1058,018,256,20,5,clara,Experiment_EEG_version,20,
Living_Things,../experiment_stimuli/bw_bc_bl/Living_Things/Birds/goldfinch_10.jpg,Birds,0,goldfinch,0,20,20,33,81.5859714258,nV_V,2,81.59087819,82.818557529,0,1,0.391076117521,83.2301919947,1,1,0.280827166047,5,6.5,32,bw,99.7830383337,2019_may_23_1058,018,256,20,5,clara,Experiment_EEG_version,20,
Living_Things,../experiment_stimuli/bw_bc_bl/Living_Things/Marine_creatures/pomfret_13.jpg,Marine_creatures,0,pomfret,0,21,21,65,85.2439211812,V_nV,1,85.2494661508,86.5065710004,1,1,0.661661200691,87.1887871062,1,1,0.180616992293,5,8.0,32,bw,99.7830383337,2019_may_23_1058,018,256,20,5,clara,Experiment_EEG_version,20,
Living_Things,../experiment_stimuli/bw_bc_bl/Living_Things/Animals/cow_26.jpg,Animals,0,cow,0,22,22,20,89.1023107392,nV_V,2,89.1079863948,90.3749749488,1,2,0.811988412403,91.2075235478,1,1,0.260837591253,5,6.5,32,bw,99.7830383337,2019_may_23_1058,018,256,20,5,clara,Experiment_EEG_version,20,
Living_Things,../experiment_stimuli/bw_bc_bl/Living_Things/Insects/butterfly_13.jpg,Insects,0,butterfly,0,23,23,10,93.2012147922,nV_V,2,93.206403808,94.4839058621,1,2,4.99107350176,99.4955343546,3,0,0.0804154684301,5,6.0,32,bw,99.7830383337,2019_may_23_1058,018,256,20,5,clara,Experiment_EEG_version,20,
Nonliving_Things,../experiment_stimuli/bw_bc_bl/Nonliving_Things/Furniture/rocking-chair_12.jpg,Furniture,0,rocking-chair,0,24,24,69,101.308845878,V_nV,2,101.313902546,102.571488517,1,2,0.48133123084,103.07338296,3,0,0.14052752126,5,8.0,32,bw,99.7830383337,2019_may_23_1058,018,256,20,5,clara,Experiment_EEG_version,20,
Living_Things,../experiment_stimuli/bw_bc_bl/Living_Things/Birds/hummingbird_12.jpg,Birds,0,hummingbird,0,25,25,42,104.946751499,nV_V,2,104.952439726,106.189354564,0,1,0.320924595697,106.530833971,1,1,0.260789362947,5,6.0,32,bw,99.7830383337,2019_may_23_1058,018,256,20,5,clara,Experiment_EEG_version,20,
Living_Things,../experiment_stimuli/bw_bc_bl/Living_Things/Animals/rhino_19.jpg,Animals,0,rhino,0,26,26,68,108.524533463,nV_V,2,108.529379931,109.787180749,1,2,0.451208880171,110.268970168,1,1,0.150555362692,5,6.5,32,bw,99.7830383337,2019_may_23_1058,018,256,20,5,clara,Experiment_EEG_version,20,
Nonliving_Things,../experiment_stimuli/bw_bc_bl/Nonliving_Things/Vehicles/ship_18.jpg,Vehicles,0,ship,0,27,27,76,112.152413927,nV_V,1,112.157254542,113.445141124,1,1,0.391084399074,113.856751564,3,0,0.140531446086,5,6.0,32,bw,99.7830383337,2019_may_23_1058,018,256,20,5,clara,Experiment_EEG_version,20,
Living_Things,../experiment_stimuli/bw_bc_bl/Living_Things/Birds/rooster_5.jpg,Birds,0,rooster,0,28,28,70,115.730194895,nV_V,2,115.736061773,117.00286021,1,2,0.621418021154,117.644860933,3,0,0.180614680052,5,6.5,32,bw,99.7830383337,2019_may_23_1058,018,256,20,5,clara,Experiment_EEG_version,20,
Nonliving_Things,../experiment_stimuli/bw_bc_bl/Nonliving_Things/Vehicles/boat_23.jpg,Vehicles,0,boat,0,29,29,7,119.558516816,V_nV,2,119.563464102,120.811135132,0,1,0.761884784093,121.5935937,3,0,0.170641229255,5,6.0,32,bw,99.7830383337,2019_may_23_1058,018,256,20,5,clara,Experiment_EEG_version,20,
Nonliving_Things,../experiment_stimuli/bw_bc_bl/Nonliving_Things/Furniture/filling-cabinet_19.jpg,Furniture,0,filling-cabinet,0,30,30,29,123.497074195,V_nV,2,123.501847818,124.729657727,0,1,0.761885039508,125.512088066,1,1,0.200650987215,5,6.0,32,bw,99.7830383337,2019_may_23_1058,018,256,20,5,clara,Experiment_EEG_version,20,
Nonliving_Things,../experiment_stimuli/bw_bc_bl/Nonliving_Things/Musical_Inst/drum_16.jpg,Musical_Inst,0,drum,0,31,31,25,127.445664897,nV_V,1,127.450562098,128.708307649,0,2,1.5034933365,130.232369563,1,1,0.180660743499,5,6.5,32,bw,99.7830383337,2019_may_23_1058,018,256,20,5,clara,Experiment_EEG_version,20,
Living_Things,../experiment_stimuli/bw_bc_bl/Living_Things/Birds/raven_8.jpg,Birds,0,raven,0,32,32,67,132.145907335,V_nV,1,132.151613302,133.418544766,1,1,1.28301550495,134.722122548,1,1,0.461217823206,5,7.5,32,bw,99.7830383337,2019_may_23_1058,018,256,20,5,clara,Experiment_EEG_version,20,
Nonliving_Things,../experiment_stimuli/bw_bc_bl/Nonliving_Things/Furniture/armchair_20.jpg,Furniture,0,armchair,0,33,33,2,136.916246749,V_nV,2,136.921967404,138.208971126,0,1,0.922244107816,139.151776767,3,0,0.401087560458,5,6.5,32,bw,99.7830383337,2019_may_23_1058,018,256,20,5,clara,Experiment_EEG_version,20,
Nonliving_Things,../experiment_stimuli/bw_bc_bl/Nonliving_Things/Musical_Inst/trumpet_14.jpg,Musical_Inst,0,trumpet,0,34,34,88,141.285759675,V_nV,2,141.290737209,142.558415523,1,2,0.401125236647,142.98010362,3,0,0.120479703182,5,7.5,32,bw,99.7830383337,2019_may_23_1058,018,256,20,5,clara,Experiment_EEG_version,20,
Living_Things,../experiment_stimuli/bw_bc_bl/Living_Things/Birds/goose_20.jpg,Birds,0,goose,0,35,35,34,144.833478798,V_nV,1,144.838311579,146.086087856,1,1,1.31307770242,147.419702624,2,0,0.210764737334,5,7.0,32,bw,99.7830383337,2019_may_23_1058,018,256,20,5,clara,Experiment_EEG_version,20,
Nonliving_Things,../experiment_stimuli/bw_bc_bl/Nonliving_Things/Buildings/palace_1.jpg,Buildings,0,palace,0,36,36,58,149.363317721,V_nV,2,149.36820652,150.605907249,1,2,0.621577658225,151.248028034,2,0,0.280829628231,5,7.0,32,bw,99.7830383337,2019_may_23_1058,018,256,20,5,clara,Experiment_EEG_version,20,
Nonliving_Things,../experiment_stimuli/bw_bc_bl/Nonliving_Things/Furniture/couch_23.jpg,Furniture,0,couch,0,37,37,19,153.261781874,V_nV,2,153.266599726,154.494364504,0,1,0.461227687774,154.976164356,1,1,0.922223792179,5,6.5,32,bw,99.7830383337,2019_may_23_1058,018,256,20,5,clara,Experiment_EEG_version,20,
Nonliving_Things,../experiment_stimuli/bw_bc_bl/Nonliving_Things/Furniture/Chest-of-drawers_7.jpg,Furniture,0,Chest-of-drawers,0,38,38,0,157.63130071,nV_V,1,157.636212714,158.893929819,1,1,0.862100961618,159.776579787,2,0,0.120479924837,5,6.0,32,bw,99.7830383337,2019_may_23_1058,018,256,20,5,clara,Experiment_EEG_version,20,
Nonliving_Things,../experiment_stimuli/bw_bc_bl/Nonliving_Things/Musical_Inst/piano__21.jpg,Musical_Inst,0,piano,0,39,39,62,161.630048539,V_nV,2,161.636983876,162.88260474,1,2,0.561457699398,163.464606002,2,0,0.310896047624,5,6.5,32,bw,99.7830383337,2019_may_23_1058,018,256,20,5,clara,Experiment_EEG_version,20,
Living_Things,../experiment_stimuli/bw_bc_bl/Living_Things/Birds/barn-owl_23.jpg,Birds,0,barn-owl,0,40,40,4,165.508409364,V_nV,1,165.513229156,166.751009147,1,1,0.340805807151,167.112379637,1,1,0.270808283007,5,6.0,32,bw,99.7830383337,2019_may_23_1058,018,256,20,5,clara,Experiment_EEG_version,20,
Nonliving_Things,../experiment_stimuli/bw_bc_bl/Nonliving_Things/Kitchen_Uten/fondue_17.jpg,Kitchen_Uten,0,fondue,0,41,41,30,169.116260149,V_nV,2,169.121065591,170.378892194,1,2,0.501313933171,170.90076925,1,1,0.621585380053,5,6.0,32,bw,99.7830383337,2019_may_23_1058,018,256,20,5,clara,Experiment_EEG_version,20,
Nonliving_Things,../experiment_stimuli/bw_bc_bl/Nonliving_Things/Vehicles/van_19.jpg,Vehicles,0,van,0,42,42,91,173.255245139,nV_V,1,173.260090998,174.557978583,1,1,1.04249528795,175.621021637,3,0,0.26079696836,5,6.5,32,bw,99.7830383337,2019_may_23_1058,018,256,20,5,clara,Experiment_EEG_version,20,
Living_Things,../experiment_stimuli/bw_bc_bl/Living_Things/Animals/elephant_9.jpg,Animals,0,elephant,0,43,43,27,177.614723088,nV_V,2,177.620553877,178.887390294,1,2,0.962317108875,179.870258699,2,0,0.501328895334,5,6.5,32,bw,99.7830383337,2019_may_23_1058,018,256,20,5,clara,Experiment_EEG_version,20,
Nonliving_Things,../experiment_stimuli/bw_bc_bl/Nonliving_Things/Buildings/mill_1.jpg,Buildings,0,mill,0,44,44,53,182.104486006,nV_V,1,182.110385343,183.367131201,0,2,0.421139555052,183.808821575,2,0,0.200652197469,5,6.0,32,bw,99.7830383337,2019_may_23_1058,018,256,20,5,clara,Experiment_EEG_version,20,
Living_Things,../experiment_stimuli/bw_bc_bl/Living_Things/Birds/sparrow_9.jpg,Birds,0,sparrow,0,45,45,79,185.742397887,V_nV,1,185.747362853,186.995021752,1,1,0.541417140746,187.556978757,2,0,0.160608730046,5,6.0,32,bw,99.7830383337,2019_may_23_1058,018,256,20,5,clara,Experiment_EEG_version,20,
Nonliving_Things,../experiment_stimuli/bw_bc_bl/Nonliving_Things/Buildings/factory_7.jpg,Buildings,0,factory,0,46,46,28,189.450451962,V_nV,2,189.455606945,190.693053719,0,1,0.270816726843,190.984464076,1,1,0.210695305839,5,8.0,32,bw,99.7830383337,2019_may_23_1058,018,256,20,5,clara,Experiment_EEG_version,20,
Nonliving_Things,../experiment_stimuli/bw_bc_bl/Nonliving_Things/Musical_Inst/violin_22.jpg,Musical_Inst,0,violin,0,47,47,92,192.928013609,nV_V,1,192.932845018,194.20068139,1,1,0.601544460282,194.82279118,3,0,0.170649372041,5,7.5,32,bw,99.7830383337,2019_may_23_1058,018,256,20,5,clara,Experiment_EEG_version,20,
Nonliving_Things,../experiment_stimuli/bw_bc_bl/Nonliving_Things/Kitchen_Uten/pot_20.jpg,Kitchen_Uten,0,pot,0,48,48,66,196.726269307,V_nV,2,196.731070403,197.978900653,1,2,0.761901340447,198.761356594,3,0,0.120483616367,5,7.5,32,bw,99.7830383337,2019_may_23_1058,018,256,20,5,clara,Experiment_EEG_version,20,
Living_Things,../experiment_stimuli/bw_bc_bl/Living_Things/Animals/tapir_2.jpg,Animals,0,tapir,0,49,49,82,200.614738167,V_nV,1,200.619589871,201.847305345,1,1,0.360489735613,202.228858768,1,1,0.230737191625,5,6.5,32,bw,99.7830383337,2019_may_23_1058,018,256,20,5,clara,Experiment_EEG_version,20,
Nonliving_Things,../experiment_stimuli/bw_bc_bl/Nonliving_Things/Vehicles/train_25.jpg,Vehicles,0,train,0,50,50,87,204.192511664,V_nV,2,204.19957133,205.435107688,1,2,0.451209455263,205.906862345,1,1,0.240767566953,5,6.5,32,bw,99.7830383337,2019_may_23_1058,018,256,20,5,clara,Experiment_EEG_version,20,
Living_Things,../experiment_stimuli/bw_bc_bl/Living_Things/Marine_creatures/sperm-whale_10.jpg,Marine_creatures,0,sperm-whale,0,51,51,80,207.880522568,nV_V,2,207.885334763,209.133142035,0,1,0.441200410714,209.594913234,2,0,0.160610805033,5,6.5,32,bw,99.7830383337,2019_may_23_1058,018,256,20,5,clara,Experiment_EEG_version,20,
Living_Things,../experiment_stimuli/bw_bc_bl/Living_Things/Marine_creatures/dolphin_9.jpg,Marine_creatures,0,dolphin,0,52,52,23,211.488378256,V_nV,1,211.493197235,212.730964546,0,2,0.701757228002,213.453302908,1,1,0.0904354681261,5,6.0,32,bw,99.7830383337,2019_may_23_1058,018,256,20,5,clara,Experiment_EEG_version,20,
Living_Things,../experiment_stimuli/bw_bc_bl/Living_Things/Insects/dragonfly_0.jpg,Insects,0,dragonfly,0,53,53,24,215.276595754,V_nV,1,215.281616758,216.539244942,1,1,1.17275984329,217.732568378,1,1,1.26297153649,5,6.0,32,bw,99.7830383337,2019_may_23_1058,018,256,20,5,clara,Experiment_EEG_version,20,
Living_Things,../experiment_stimuli/bw_bc_bl/Living_Things/Marine_creatures/manatee_13.jpg,Marine_creatures,0,manatee,0,54,54,52,220.728450484,V_nV,1,220.733445198,222.02116032,1,1,5.44206571556,227.483804383,3,0,0.150547783822,5,7.5,32,bw,99.7830383337,2019_may_23_1058,018,256,20,5,clara,Experiment_EEG_version,20,
Living_Things,../experiment_stimuli/bw_bc_bl/Living_Things/Birds/ostrich_4.jpg,Birds,0,ostrich,0,55,55,56,229.367228918,V_nV,1,229.372257195,230.629875481,1,1,0.471258479869,231.121684844,1,1,0.511333718197,5,6.5,32,bw,99.7830383337,2019_may_23_1058,018,256,20,5,clara,Experiment_EEG_version,20,
Nonliving_Things,../experiment_stimuli/bw_bc_bl/Nonliving_Things/Kitchen_Uten/teapot_23.jpg,Kitchen_Uten,0,teapot,0,56,56,83,233.365925041,nV_V,1,233.372041803,234.638591935,1,1,0.68170739105,235.34086361,2,0,0.170588756213,5,6.0,32,bw,99.7830383337,2019_may_23_1058,018,256,20,5,clara,Experiment_EEG_version,20,
Living_Things,../experiment_stimuli/bw_bc_bl/Living_Things/Birds/partridge_23.jpg,Birds,0,partridge,0,57,57,59,237.244352022,nV_V,2,237.25046716,238.507000744,1,2,0.701763667399,239.229317651,1,1,0.260788046988,5,6.0,32,bw,99.7830383337,2019_may_23_1058,018,256,20,5,clara,Experiment_EEG_version,20,
Nonliving_Things,../experiment_stimuli/bw_bc_bl/Nonliving_Things/Vehicles/plane_1.jpg,Vehicles,0,plane,0,58,58,64,241.223017256,V_nV,2,241.228021895,242.495669944,0,1,0.601530764718,243.117759335,2,0,0.190630875295,5,6.0,32,bw,99.7830383337,2019_may_23_1058,018,256,20,5,clara,Experiment_EEG_version,20,
Living_Things,../experiment_stimuli/bw_bc_bl/Living_Things/Birds/hen_9.jpg,Birds,0,hen,0,59,59,38,245.041303369,V_nV,1,245.046226547,246.303950256,1,1,0.441186008742,246.76569538,2,0,0.180615022313,5,7.5,32,bw,99.7830383337,2019_may_23_1058,018,256,20,5,clara,Experiment_EEG_version,20,
Nonliving_Things,../experiment_stimuli/bw_bc_bl/Nonliving_Things/Furniture/table_20.jpg,Furniture,0,table,0,60,60,81,248.679207021,nV_V,1,248.68429985,249.931836898,0,2,0.751702648122,250.704109758,1,1,0.160614951514,5,6.0,32,bw,99.7830383337,2019_may_23_1058,018,256,20,5,clara,Experiment_EEG_version,20,
Living_Things,../experiment_stimuli/bw_bc_bl/Living_Things/Animals/cat_10.jpg,Animals,0,cat,0,61,61,13,252.597739808,nV_V,2,252.602661997,253.880434829,1,2,0.611564861843,254.512532911,2,0,0.280677281087,5,6.0,32,bw,99.7830383337,2019_may_23_1058,018,256,20,5,clara,Experiment_EEG_version,20,
Living_Things,../experiment_stimuli/bw_bc_bl/Living_Things/Birds/seagull_5.jpg,Birds,0,seagull,0,62,62,74,256.526269057,V_nV,1,256.531143408,257.808972818,1,1,0.701749683125,258.531278214,2,0,0.230574114947,5,6.5,32,bw,99.7830383337,2019_may_23_1058,018,256,20,5,clara,Experiment_EEG_version,20,
Living_Things,../experiment_stimuli/bw_bc_bl/Living_Things/Animals/tiger_18.jpg,Animals,0,tiger,0,63,63,84,260.49489378,V_nV,1,260.49978733,261.767562978,1,1,0.821849850472,262.609973414,2,0,0.180615041172,5,6.0,32,bw,99.7830383337,2019_may_23_1058,018,256,20,5,clara,Experiment_EEG_version,20,
Living_Things,../experiment_stimuli/bw_bc_bl/Living_Things/Insects/scorpion_17.jpg,Insects,0,scorpion,0,64,64,73,264.52365227,V_nV,1,264.528754163,265.786305537,0,2,1.51351679419,267.320385412,1,1,0.150593008846,5,6.0,32,bw,99.7830383337,2019_may_23_1058,018,256,20,5,clara,Experiment_EEG_version,20,
Nonliving_Things,../experiment_stimuli/bw_bc_bl/Nonliving_Things/Kitchen_Uten/small-saucepan_13.jpg,Kitchen_Uten,0,small-saucepan,0,65,65,77,269.203834431,V_nV,2,269.208737165,270.486522248,1,2,1.0725548726,271.589662254,3,0,0.230774262454,5,6.0,32,bw,99.7830383337,2019_may_23_1058,018,256,20,5,clara,Experiment_EEG_version,20,
Nonliving_Things,../experiment_stimuli/bw_bc_bl/Nonliving_Things/Furniture/sofa_4.jpg,Furniture,0,sofa,0,66,66,78,273.553284651,V_nV,2,273.558174355,274.825956387,1,2,0.731655615382,275.578156832,3,0,0.150552919134,5,6.5,32,bw,99.7830383337,2019_may_23_1058,018,256,20,5,clara,Experiment_EEG_version,20,
Nonliving_Things,../experiment_stimuli/bw_bc_bl/Nonliving_Things/Kitchen_Uten/saucepan_0.jpg,Kitchen_Uten,0,saucepan,0,67,67,71,277.461785146,nV_V,1,277.466625467,278.694361222,1,1,0.260801949073,278.97571158,1,1,0.190628811251,5,6.0,32,bw,99.7830383337,2019_may_23_1058,018,256,20,5,clara,Experiment_EEG_version,20,
Nonliving_Things,../experiment_stimuli/bw_bc_bl/Nonliving_Things/Furniture/bed_9.jpg,Furniture,0,bed,0,68,68,5,280.899256397,nV_V,1,280.904139763,282.161903535,1,1,0.561446526786,282.743893558,3,0,0.110472763656,5,6.0,32,bw,99.7830383337,2019_may_23_1058,018,256,20,5,clara,Experiment_EEG_version,20,
Nonliving_Things,../experiment_stimuli/bw_bc_bl/Nonliving_Things/Buildings/granary_16.jpg,Buildings,0,granary,0,69,69,35,284.587271301,nV_V,1,284.592261545,285.819853114,0,2,0.260800464079,286.101200619,1,1,0.0303025997709,5,6.5,32,bw,99.7830383337,2019_may_23_1058,018,256,20,5,clara,Experiment_EEG_version,20,
Living_Things,../experiment_stimuli/bw_bc_bl/Living_Things/Birds/toucan_9.jpg,Birds,0,toucan,0,70,70,85,287.864398055,nV_V,2,287.869351326,289.127042796,0,1,1.09259988973,290.240197575,2,0,0.080394318793,5,6.5,32,bw,99.7830383337,2019_may_23_1058,018,256,20,5,clara,Experiment_EEG_version,20,
Nonliving_Things,../experiment_stimuli/bw_bc_bl/Nonliving_Things/Vehicles/tractor_22.jpg,Vehicles,0,tractor,0,71,71,86,292.053509674,nV_V,1,292.058477618,293.306130475,1,1,1.24294745876,294.569627534,1,1,0.200664840406,5,6.0,32,bw,99.7830383337,2019_may_23_1058,018,256,20,5,clara,Experiment_EEG_version,20,
Living_Things,../experiment_stimuli/bw_bc_bl/Living_Things/Marine_creatures/shark_20.jpg,Marine_creatures,0,shark,0,72,72,75,296.503177542,V_nV,1,296.508112099,297.775844999,1,1,0.701751641463,298.498151313,2,0,0.0904114269651,5,7.5,32,bw,99.7830383337,2019_may_23_1058,018,256,20,5,clara,Experiment_EEG_version,20,
Nonliving_Things,../experiment_stimuli/bw_bc_bl/Nonliving_Things/Furniture/bedside-table_21.jpg,Furniture,0,bedside-table,0,73,73,6,300.321479301,V_nV,2,300.326492158,301.584125425,1,2,1.00240571168,302.607087087,2,0,0.210671576671,5,6.5,32,bw,99.7830383337,2019_may_23_1058,018,256,20,5,clara,Experiment_EEG_version,20,
Living_Things,../experiment_stimuli/bw_bc_bl/Living_Things/Animals/horse_24.jpg,Animals,0,horse,0,74,74,40,304.550686029,nV_V,2,304.555642635,305.813318338,0,1,0.942116202787,306.776004408,1,1,2.79631080967,5,6.0,32,bw,99.7830383337,2019_may_23_1058,018,256,20,5,clara,Experiment_EEG_version,20,
Living_Things,../experiment_stimuli/bw_bc_bl/Living_Things/Marine_creatures/lobster_11.jpg,Marine_creatures,0,lobster,0,75,75,49,311.305355627,nV_V,2,311.31041266,312.598069282,1,2,0.561439651065,313.180072433,1,1,0.0802454187069,5,6.0,32,bw,99.7830383337,2019_may_23_1058,018,256,20,5,clara,Experiment_EEG_version,20,
Nonliving_Things,../experiment_stimuli/bw_bc_bl/Nonliving_Things/Musical_Inst/tuba_21.jpg,Musical_Inst,0,tuba,0,76,76,89,314.993387166,V_nV,2,314.999895103,316.296107125,1,2,1.27302010683,317.589679543,3,0,0.180615059799,5,6.0,32,bw,99.7830383337,2019_may_23_1058,018,256,20,5,clara,Experiment_EEG_version,20,
Nonliving_Things,../experiment_stimuli/bw_bc_bl/Nonliving_Things/Furniture/chair_0.jpg,Furniture,0,chair,0,77,77,15,319.50318232,V_nV,2,319.508315656,320.77585007,0,1,0.521366236033,321.317765411,2,0,0.110455711372,5,8.0,32,bw,99.7830383337,2019_may_23_1058,018,256,20,5,clara,Experiment_EEG_version,20,
Living_Things,../experiment_stimuli/bw_bc_bl/Living_Things/Birds/magpie_19.jpg,Birds,0,magpie,0,78,78,51,323.161133079,nV_V,2,323.166164984,324.433802048,1,2,0.571478018537,325.0258424,1,1,0.180613676552,5,6.0,32,bw,99.7830383337,2019_may_23_1058,018,256,20,5,clara,Experiment_EEG_version,20,
Nonliving_Things,../experiment_stimuli/bw_bc_bl/Nonliving_Things/Furniture/wardrobe_21.jpg,Furniture,0,wardrobe,0,79,79,93,326.939362702,V_nV,2,326.944278477,328.222037362,1,2,0.611567354295,328.85451356,3,0,0.140373429283,5,6.5,32,bw,99.7830383337,2019_may_23_1058,018,256,20,5,clara,Experiment_EEG_version,20,
Living_Things,../experiment_stimuli/bw_bc_bl/Living_Things/Animals/zebra_6.jpg,Animals,0,zebra,0,80,80,95,330.727579817,V_nV,1,330.732702834,332.00025,1,1,1.27301296405,333.293806734,2,0,0.240759412525,5,7.0,32,bw,99.7830383337,2019_may_23_1058,018,256,20,5,clara,Experiment_EEG_version,20,
Living_Things,../experiment_stimuli/bw_bc_bl/Living_Things/Insects/ladybird_16.jpg,Insects,0,ladybird,0,81,81,45,335.267453886,nV_V,2,335.272465863,336.520071665,0,1,0.95229438087,337.492917093,2,0,0.140524513787,5,6.0,32,bw,99.7830383337,2019_may_23_1058,018,256,20,5,clara,Experiment_EEG_version,20,
Nonliving_Things,../experiment_stimuli/bw_bc_bl/Nonliving_Things/Kitchen_Uten/coking-pot_22.jpg,Kitchen_Uten,0,coking-pot,0,82,82,18,339.366354574,nV_V,1,339.372844955,340.608968402,0,2,0.611554132774,341.241071842,2,0,0.220701748971,5,6.0,32,bw,99.7830383337,2019_may_23_1058,018,256,20,5,clara,Experiment_EEG_version,20,
Living_Things,../experiment_stimuli/bw_bc_bl/Living_Things/Animals/cheetah_9.jpg,Animals,0,cheetah,0,83,83,16,343.194676405,V_nV,1,343.199878732,344.437298285,1,1,0.361011220841,344.818842287,1,1,0.822010479635,5,6.5,32,bw,99.7830383337,2019_may_23_1058,018,256,20,5,clara,Experiment_EEG_version,20,
Nonliving_Things,../experiment_stimuli/bw_bc_bl/Nonliving_Things/Vehicles/bus_4.jpg,Vehicles,0,bus,0,84,84,9,347.373761644,nV_V,1,347.378714498,348.636418023,1,1,0.942277320893,349.59925258,3,0,0.200658144895,5,7.0,32,bw,99.7830383337,2019_may_23_1058,018,256,20,5,clara,Experiment_EEG_version,20,
Nonliving_Things,../experiment_stimuli/bw_bc_bl/Nonliving_Things/Furniture/lectern_24.jpg,Furniture,0,lectern,0,85,85,47,351.532820595,nV_V,1,351.537879827,352.765390138,1,1,0.381050268421,353.166982191,1,1,0.230737571605,5,6.5,32,bw,99.7830383337,2019_may_23_1058,018,256,20,5,clara,Experiment_EEG_version,20,
Nonliving_Things,../experiment_stimuli/bw_bc_bl/Nonliving_Things/Vehicles/car_12.jpg,Vehicles,0,car,0,86,86,11,355.130627607,nV_V,1,355.135779085,356.383252919,1,1,2.94663343881,359.350437962,3,0,0.37102593435,5,6.5,32,bw,99.7830383337,2019_may_23_1058,018,256,20,5,clara,Experiment_EEG_version,20,
Nonliving_Things,../experiment_stimuli/bw_bc_bl/Nonliving_Things/Tools/axe_6.jpg,Tools,0,axe,0,87,87,3,361.454375022,V_nV,2,361.459503253,362.686959404,1,2,0.280829278752,362.988339584,1,1,0.140543272952,5,6.0,32,bw,99.7830383337,2019_may_23_1058,018,256,20,5,clara,Experiment_EEG_version,20,
Living_Things,../experiment_stimuli/bw_bc_bl/Living_Things/Birds/penguin_10.jpg,Birds,0,penguin,0,88,88,61,364.861782922,V_nV,1,364.866811824,366.134460229,1,1,0.711789952591,366.866803703,2,0,0.140532404417,5,7.0,32,bw,99.7830383337,2019_may_23_1058,018,256,20,5,clara,Experiment_EEG_version,20,
Living_Things,../experiment_stimuli/bw_bc_bl/Living_Things/Animals/turtle_19.jpg,Animals,0,turtle,0,89,89,90,368.740212562,nV_V,2,368.745369322,369.992843716,0,1,0.150566783501,370.163966577,1,1,0.170584609499,5,6.0,32,bw,99.7830383337,2019_may_23_1058,018,256,20,5,clara,Experiment_EEG_version,20,
Living_Things,../experiment_stimuli/bw_bc_bl/Living_Things/Animals/giraffe_10.jpg,Animals,0,giraffe,0,90,90,32,372.067447489,V_nV,1,372.072693001,373.360164506,1,1,0.881983349798,374.262714888,2,0,0.0812599866185,5,6.5,32,bw,99.7830383337,2019_may_23_1058,018,256,20,5,clara,Experiment_EEG_version,20,
Living_Things,../experiment_stimuli/bw_bc_bl/Living_Things/Birds/duck_2.jpg,Birds,0,duck,0,91,91,26,376.076162244,nV_V,2,376.081356226,377.348831998,1,2,0.501322620781,377.880738099,3,0,0.110463195946,5,6.0,32,bw,99.7830383337,2019_may_23_1058,018,256,20,5,clara,Experiment_EEG_version,20,
Nonliving_Things,../experiment_stimuli/bw_bc_bl/Nonliving_Things/Furniture/lamp_9.jpg,Furniture,0,lamp,0,92,92,46,379.724092151,nV_V,1,379.729310515,380.976723572,1,1,0.952301500598,381.949579962,3,0,0.130511574447,5,6.0,32,bw,99.7830383337,2019_may_23_1058,018,256,20,5,clara,Experiment_EEG_version,20,
Living_Things,../experiment_stimuli/bw_bc_bl/Living_Things/Marine_creatures/killer-whale_22.jpg,Marine_creatures,0,killer-whale,0,93,93,43,383.823003004,V_nV,1,383.828148911,385.055590212,1,1,0.451205432881,385.5273519,1,1,0.180611488409,5,6.0,32,bw,99.7830383337,2019_may_23_1058,018,256,20,5,clara,Experiment_EEG_version,20,
Living_Things,../experiment_stimuli/bw_bc_bl/Living_Things/Animals/lioness_19.jpg,Animals,0,lioness,0,94,94,48,387.440870788,nV_V,2,387.446225212,388.683480376,1,2,1.10262384033,389.806647163,1,1,0.0904112313874,5,6.5,32,bw,99.7830383337,2019_may_23_1058,018,256,20,5,clara,Experiment_EEG_version,20,
Living_Things,../experiment_stimuli/bw_bc_bl/Living_Things/Birds/owl_20.jpg,Birds,0,owl,0,95,95,57,391.629976456,V_nV,1,391.635366676,392.91266783,1,1,0.601546155522,393.53478206,1,1,0.220701384591,5,6.5,32,bw,99.7830383337,2019_may_23_1058,018,256,20,5,clara,Experiment_EEG_version,20,
