category,probe_path,subcategory,fixation_duration,label,trials.thisRepN,trials.thisTrialN,trials.thisN,trials.thisIndex,image_onset_time,response_window,correctAns,probe_onset,discrim_resptime,response.corr,response.keys,response.rt,visible_resptime,visible.keys,visible.corr,visible.rt,probeFrames,jitter2,n_square,experiment_color,frameRate,date,session,image_size,premask_dur,probeFrames,participant,expName,postmask_dur,
Nonliving_Things,../experiment_stimuli/bw_bc_bl/Nonliving_Things/Musical_Inst/guitar_13.jpg,Musical_Inst,0,guitar,0,0,0,36,3.71541550779,nV_V,1,3.73698117235,4.99809432589,1,1,0.912212841678,5.94118140195,3,0,0.120493526338,5,6.0,32,bw,99.7825784021,2019_may_23_1041,016,256,20,5,clara,Experiment_EEG_version,20,
Living_Things,../experiment_stimuli/bw_bc_bl/Living_Things/Animals/rhino_25.jpg,Animals,0,rhino,0,1,1,68,7.79427435901,V_nV,1,7.79912331956,9.0468965699,1,1,0.531384758186,9.5988399249,2,0,0.0703750222456,5,6.0,32,bw,99.7825784021,2019_may_23_1041,016,256,20,5,clara,Experiment_EEG_version,20,
Living_Things,../experiment_stimuli/bw_bc_bl/Living_Things/Animals/zebra_20.jpg,Animals,0,zebra,0,2,2,95,11.4021163548,V_nV,1,11.4070373331,12.6447156302,0,2,1.52354687615,14.1888192382,1,1,0.170594496652,5,7.0,32,bw,99.7825784021,2019_may_23_1041,016,256,20,5,clara,Experiment_EEG_version,20,
Nonliving_Things,../experiment_stimuli/bw_bc_bl/Nonliving_Things/Buildings/castle_8.jpg,Buildings,0,castle,0,3,3,12,16.0923116764,nV_V,1,16.0971996591,17.3549561875,0,2,0.701759397518,18.0772614635,1,1,0.250795280328,5,8.0,32,bw,99.7825784021,2019_may_23_1041,016,256,20,5,clara,Experiment_EEG_version,20,
Living_Things,../experiment_stimuli/bw_bc_bl/Living_Things/Animals/cheetah_4.jpg,Animals,0,cheetah,0,4,4,16,20.0609362873,nV_V,2,20.0658568556,21.3336055644,1,2,0.551430711756,21.9055872185,2,0,0.190632070415,5,7.5,32,bw,99.7825784021,2019_may_23_1041,016,256,20,5,clara,Experiment_EEG_version,20,
Nonliving_Things,../experiment_stimuli/bw_bc_bl/Nonliving_Things/Vehicles/boat_11.jpg,Vehicles,0,boat,0,5,5,7,23.8291242009,nV_V,1,23.8339073274,25.0917696101,1,1,0.721792470897,25.8341279447,3,0,0.120481639402,5,6.0,32,bw,99.7825784021,2019_may_23_1041,016,256,20,5,clara,Experiment_EEG_version,20,
Living_Things,../experiment_stimuli/bw_bc_bl/Living_Things/Marine_creatures/lobster_24.jpg,Marine_creatures,0,lobster,0,6,6,49,27.6875148977,nV_V,2,27.6925581184,28.9301133498,1,2,0.270820929902,29.2214770417,2,0,0.230724936351,5,6.5,32,bw,99.7825784021,2019_may_23_1041,016,256,20,5,clara,Experiment_EEG_version,20,
Living_Things,../experiment_stimuli/bw_bc_bl/Living_Things/Birds/raven_20.jpg,Birds,0,raven,0,7,7,67,31.185114705,V_nV,1,31.1905647658,32.4177059548,1,1,1.06253260258,33.5007830865,1,1,0.200649746461,5,6.0,32,bw,99.7825784021,2019_may_23_1041,016,256,20,5,clara,Experiment_EEG_version,20,
Living_Things,../experiment_stimuli/bw_bc_bl/Living_Things/Marine_creatures/pomfret_17.jpg,Marine_creatures,0,pomfret,0,8,8,65,35.4343553947,V_nV,1,35.4391601717,36.6869775981,1,1,2.20502125146,38.9125318713,1,1,0.240743548376,5,6.5,32,bw,99.7825784021,2019_may_23_1041,016,256,20,5,clara,Experiment_EEG_version,20,
Nonliving_Things,../experiment_stimuli/bw_bc_bl/Nonliving_Things/Furniture/couch_8.jpg,Furniture,0,couch,0,9,9,19,40.8862010003,V_nV,2,40.8909802849,42.1588945363,1,2,1.01243083877,43.1918731034,1,1,0.0904182274826,5,6.5,32,bw,99.7825784021,2019_may_23_1041,016,256,20,5,clara,Experiment_EEG_version,20,
Living_Things,../experiment_stimuli/bw_bc_bl/Living_Things/Animals/cow_3.jpg,Animals,0,cow,0,10,10,20,45.0151761076,V_nV,1,45.0201954639,46.2978661887,1,1,0.741980542662,47.0603922831,2,0,0.130356963724,5,7.0,32,bw,99.7825784021,2019_may_23_1041,016,256,20,5,clara,Experiment_EEG_version,20,
Nonliving_Things,../experiment_stimuli/bw_bc_bl/Nonliving_Things/Buildings/granary_21.jpg,Buildings,0,granary,0,11,11,35,48.9236733501,nV_V,1,48.9292239845,50.1963511535,1,1,0.661663561594,50.8785422216,2,0,0.100445125485,5,6.0,32,bw,99.7825784021,2019_may_23_1041,016,256,20,5,clara,Experiment_EEG_version,20,
Living_Things,../experiment_stimuli/bw_bc_bl/Living_Things/Marine_creatures/shark_2.jpg,Marine_creatures,0,shark,0,12,12,75,52.711927491,V_nV,1,52.7167202004,53.9745590815,1,1,0.691741499351,54.6868424104,2,0,0.110463470686,5,6.0,32,bw,99.7825784021,2019_may_23_1041,016,256,20,5,clara,Experiment_EEG_version,20,
Living_Things,../experiment_stimuli/bw_bc_bl/Living_Things/Birds/pigeon_11.jpg,Birds,0,pigeon,0,13,13,63,56.5302131497,nV_V,2,56.5358398922,57.7828289734,1,2,1.18280322221,58.9861811681,1,1,0.0603793121409,5,6.5,32,bw,99.7825784021,2019_may_23_1041,016,256,20,5,clara,Experiment_EEG_version,20,
Nonliving_Things,../experiment_stimuli/bw_bc_bl/Nonliving_Things/Vehicles/motorbike_11.jpg,Vehicles,0,motorbike,0,14,14,54,60.7794478391,V_nV,2,60.7857100689,62.0420949857,1,2,2.15490867617,64.217557292,3,0,0.22070804215,5,8.0,32,bw,99.7825784021,2019_may_23_1041,016,256,20,5,clara,Experiment_EEG_version,20,
Living_Things,../experiment_stimuli/bw_bc_bl/Living_Things/Marine_creatures/dolphin_3.jpg,Marine_creatures,0,dolphin,0,15,15,23,66.1711710501,nV_V,2,66.1760184092,67.4037457888,0,1,0.651643757708,68.0759633195,1,1,0.200655419612,5,6.5,32,bw,99.7825784021,2019_may_23_1041,016,256,20,5,clara,Experiment_EEG_version,20,
Nonliving_Things,../experiment_stimuli/bw_bc_bl/Nonliving_Things/Furniture/wardrobe_6.jpg,Furniture,0,wardrobe,0,16,16,93,70.0095068726,nV_V,1,70.0142548308,71.2621336661,1,1,1.50349485525,72.7861798133,3,0,0.120478936238,5,6.5,32,bw,99.7825784021,2019_may_23_1041,016,256,20,5,clara,Experiment_EEG_version,20,
Nonliving_Things,../experiment_stimuli/bw_bc_bl/Nonliving_Things/Furniture/bed_13.jpg,Furniture,0,bed,0,17,17,5,74.6395730744,nV_V,1,74.6450531499,75.8721563919,1,1,0.751869818661,76.6445939345,1,1,0.240740341833,5,6.5,32,bw,99.7825784021,2019_may_23_1041,016,256,20,5,clara,Experiment_EEG_version,20,
Nonliving_Things,../experiment_stimuli/bw_bc_bl/Nonliving_Things/Furniture/Chest-of-drawers_23.jpg,Furniture,0,Chest-of-drawers,0,18,18,0,78.6182253158,nV_V,1,78.6238314644,79.8808774883,1,1,2.11482866737,82.0162581168,2,0,0.401090868749,5,8.0,32,bw,99.7825784021,2019_may_23_1041,016,256,20,5,clara,Experiment_EEG_version,20,
Living_Things,../experiment_stimuli/bw_bc_bl/Living_Things/Birds/rooster_15.jpg,Birds,0,rooster,0,19,19,70,84.1502495287,V_nV,1,84.1565218144,85.4028755592,0,2,0.792114802171,86.2155759914,1,1,0.0503198998049,5,7.5,32,bw,99.7825784021,2019_may_23_1041,016,256,20,5,clara,Experiment_EEG_version,20,
Living_Things,../experiment_stimuli/bw_bc_bl/Living_Things/Birds/sparrow_17.jpg,Birds,0,sparrow,0,20,20,79,87.9986170344,V_nV,1,88.0035716703,89.2813065706,1,1,0.882309950655,90.184163159,2,0,0.130345787387,5,6.0,32,bw,99.7825784021,2019_may_23_1041,016,256,20,5,clara,Experiment_EEG_version,20,
Living_Things,../experiment_stimuli/bw_bc_bl/Living_Things/Insects/ladybird_24.jpg,Insects,0,ladybird,0,21,21,45,92.0474233425,V_nV,1,92.0524127935,93.3200873907,1,1,0.471249322174,93.8118783361,2,0,0.0904135096353,5,6.0,32,bw,99.7825784021,2019_may_23_1041,016,256,20,5,clara,Experiment_EEG_version,20,
Living_Things,../experiment_stimuli/bw_bc_bl/Living_Things/Birds/ostrich_2.jpg,Birds,0,ostrich,0,22,22,56,95.6352221929,V_nV,1,95.6401161379,96.8978727979,1,1,1.13268992095,98.0511170637,2,0,0.100442275871,5,6.0,32,bw,99.7825784021,2019_may_23_1041,016,256,20,5,clara,Experiment_EEG_version,20,
Living_Things,../experiment_stimuli/bw_bc_bl/Living_Things/Birds/owl_14.jpg,Birds,0,owl,0,23,23,57,99.8844581835,V_nV,1,99.8910198261,101.137076669,0,2,0.421145393513,101.578783204,2,0,0.461241882993,5,7.0,32,bw,99.7825784021,2019_may_23_1041,016,256,20,5,clara,Experiment_EEG_version,20,
Nonliving_Things,../experiment_stimuli/bw_bc_bl/Nonliving_Things/Vehicles/plane_20.jpg,Vehicles,0,plane,0,24,24,64,103.772912604,V_nV,2,103.77779738,105.015509857,0,1,0.651650325628,105.687729527,2,0,0.0703806837555,5,6.0,32,bw,99.7825784021,2019_may_23_1041,016,256,20,5,clara,Experiment_EEG_version,20,
Nonliving_Things,../experiment_stimuli/bw_bc_bl/Nonliving_Things/Furniture/armchair_10.jpg,Furniture,0,armchair,0,25,25,2,107.490988878,V_nV,2,107.497323749,108.723576263,0,1,0.431166949216,109.175281279,1,1,0.24073956348,5,6.0,32,bw,99.7825784021,2019_may_23_1041,016,256,20,5,clara,Experiment_EEG_version,20,
Nonliving_Things,../experiment_stimuli/bw_bc_bl/Nonliving_Things/Musical_Inst/piano__6.jpg,Musical_Inst,0,piano,0,26,26,62,111.148944821,V_nV,2,111.153824537,112.391549773,1,2,0.481273160083,112.903376755,1,1,0.0904130360577,5,6.0,32,bw,99.7825784021,2019_may_23_1041,016,256,20,5,clara,Experiment_EEG_version,20,
Nonliving_Things,../experiment_stimuli/bw_bc_bl/Nonliving_Things/Vehicles/ship_15.jpg,Vehicles,0,ship,0,27,27,76,114.726745465,nV_V,1,114.731686988,115.979344988,1,1,0.922244434943,116.922144787,1,1,0.250614531105,5,7.0,32,bw,99.7825784021,2019_may_23_1041,016,256,20,5,clara,Experiment_EEG_version,20,
Living_Things,../experiment_stimuli/bw_bc_bl/Living_Things/Birds/hummingbird_16.jpg,Birds,0,hummingbird,0,28,28,42,118.905808284,nV_V,2,118.910728059,120.168449802,0,1,2.06471526111,122.253707987,2,0,0.100440467475,5,6.0,32,bw,99.7825784021,2019_may_23_1041,016,256,20,5,clara,Experiment_EEG_version,20,
Nonliving_Things,../experiment_stimuli/bw_bc_bl/Nonliving_Things/Buildings/cathedral_23.jpg,Buildings,0,cathedral,0,29,29,14,124.087071825,nV_V,1,124.093622103,125.339692348,1,1,0.501317252871,125.86155519,2,0,0.120495488402,5,6.0,32,bw,99.7825784021,2019_may_23_1041,016,256,20,5,clara,Experiment_EEG_version,20,
Living_Things,../experiment_stimuli/bw_bc_bl/Living_Things/Marine_creatures/crab_0.jpg,Marine_creatures,0,crab,0,30,30,21,127.714953977,nV_V,2,127.719909237,128.957567515,0,1,0.852103928337,129.830201627,1,1,0.240741428453,5,6.0,32,bw,99.7825784021,2019_may_23_1041,016,256,20,5,clara,Experiment_EEG_version,20,
Living_Things,../experiment_stimuli/bw_bc_bl/Living_Things/Animals/giraffe_17.jpg,Animals,0,giraffe,0,31,31,32,131.803842384,nV_V,2,131.80975269,133.056472952,0,1,0.721794737969,133.798812602,2,0,0.100438711932,5,7.5,32,bw,99.7825784021,2019_may_23_1041,016,256,20,5,clara,Experiment_EEG_version,20,
Nonliving_Things,../experiment_stimuli/bw_bc_bl/Nonliving_Things/Buildings/mill_20.jpg,Buildings,0,mill,0,32,32,53,135.632173218,nV_V,1,135.637042866,136.874769795,1,1,0.451208331389,137.346524873,1,1,0.200510824099,5,8.0,32,bw,99.7825784021,2019_may_23_1041,016,256,20,5,clara,Experiment_EEG_version,20,
Living_Things,../experiment_stimuli/bw_bc_bl/Living_Things/Birds/seagull_19.jpg,Birds,0,seagull,0,33,33,74,139.280097775,nV_V,2,139.284962728,140.552776112,1,2,1.33312507323,141.906447481,3,0,0.120480218437,5,6.0,32,bw,99.7825784021,2019_may_23_1041,016,256,20,5,clara,Experiment_EEG_version,20,
Living_Things,../experiment_stimuli/bw_bc_bl/Living_Things/Animals/elephant_2.jpg,Animals,0,elephant,0,34,34,27,143.759833551,nV_V,2,143.764792634,145.012458461,0,1,1.81417560112,146.847195373,1,1,0.240762284957,5,6.0,32,bw,99.7825784021,2019_may_23_1041,016,256,20,5,clara,Experiment_EEG_version,20,
Living_Things,../experiment_stimuli/bw_bc_bl/Living_Things/Insects/scorpion_2.jpg,Insects,0,scorpion,0,35,35,73,148.820837641,nV_V,2,148.825808269,150.103529038,0,1,0.641629780643,150.765716441,2,0,0.18061627401,5,7.0,32,bw,99.7825784021,2019_may_23_1041,016,256,20,5,clara,Experiment_EEG_version,20,
Nonliving_Things,../experiment_stimuli/bw_bc_bl/Nonliving_Things/Furniture/filling-cabinet_15.jpg,Furniture,0,filling-cabinet,0,36,36,29,152.679249747,nV_V,1,152.684083065,153.951891254,1,1,1.99457991961,155.967017323,3,0,0.250779013382,5,6.0,32,bw,99.7825784021,2019_may_23_1041,016,256,20,5,clara,Experiment_EEG_version,20,
Nonliving_Things,../experiment_stimuli/bw_bc_bl/Nonliving_Things/Musical_Inst/tuba_19.jpg,Musical_Inst,0,tuba,0,37,37,89,157.950680846,V_nV,2,157.95567335,159.20331582,1,2,0.621588830836,159.845439391,3,0,0.150558753638,5,6.0,32,bw,99.7825784021,2019_may_23_1041,016,256,20,5,clara,Experiment_EEG_version,20,
Nonliving_Things,../experiment_stimuli/bw_bc_bl/Nonliving_Things/Kitchen_Uten/frying-pan_9.jpg,Kitchen_Uten,0,frying-pan,0,38,38,31,161.728901751,nV_V,1,161.733786482,162.96148661,1,1,0.671685087262,163.65370902,1,1,0.230714225676,5,6.0,32,bw,99.7825784021,2019_may_23_1041,016,256,20,5,clara,Experiment_EEG_version,20,
Living_Things,../experiment_stimuli/bw_bc_bl/Living_Things/Birds/toucan_0.jpg,Birds,0,toucan,0,39,39,85,165.617356619,nV_V,2,165.622268831,166.869977537,0,1,0.902190800989,167.792718367,3,0,0.44117050129,5,6.0,32,bw,99.7825784021,2019_may_23_1041,016,256,20,5,clara,Experiment_EEG_version,20,
Living_Things,../experiment_stimuli/bw_bc_bl/Living_Things/Birds/hen_26.jpg,Birds,0,hen,0,40,40,38,169.966809148,nV_V,2,169.971610222,171.199389108,0,1,0.481263615191,171.701204256,1,1,0.250762946438,5,6.0,32,bw,99.7825784021,2019_may_23_1041,016,256,20,5,clara,Experiment_EEG_version,20,
Living_Things,../experiment_stimuli/bw_bc_bl/Living_Things/Animals/hippopotamus_15.jpg,Animals,0,hippopotamus,0,41,41,39,173.684894708,V_nV,1,173.690675504,174.93751746,1,1,0.401098917238,175.359703466,1,1,0.280682998709,5,6.5,32,bw,99.7825784021,2019_may_23_1041,016,256,20,5,clara,Experiment_EEG_version,20,
Nonliving_Things,../experiment_stimuli/bw_bc_bl/Nonliving_Things/Kitchen_Uten/small-saucepan_11.jpg,Kitchen_Uten,0,small-saucepan,0,42,42,77,177.372905961,V_nV,2,177.377809128,178.64557587,1,2,0.912209048402,179.57834415,3,0,0.100455391919,5,7.0,32,bw,99.7825784021,2019_may_23_1041,016,256,20,5,clara,Experiment_EEG_version,20,
Nonliving_Things,../experiment_stimuli/bw_bc_bl/Nonliving_Things/Vehicles/car_14.jpg,Vehicles,0,car,0,43,43,11,181.411697563,V_nV,2,181.416506599,182.654294568,0,1,1.21287035523,183.887707505,2,0,0.23072306416,5,6.5,32,bw,99.7825784021,2019_may_23_1041,016,256,20,5,clara,Experiment_EEG_version,20,
Living_Things,../experiment_stimuli/bw_bc_bl/Living_Things/Birds/kiwi_5.jpg,Birds,0,kiwi,0,44,44,44,185.851338383,nV_V,2,185.856141284,187.083921328,0,1,0.421137619065,187.525605364,1,1,0.200646581128,5,7.5,32,bw,99.7825784021,2019_may_23_1041,016,256,20,5,clara,Experiment_EEG_version,20,
Living_Things,../experiment_stimuli/bw_bc_bl/Living_Things/Animals/tapir_8.jpg,Animals,0,tapir,0,45,45,82,189.459184333,nV_V,2,189.464087004,190.721836081,1,2,0.972338277614,191.71471155,3,0,0.421129698167,5,6.0,32,bw,99.7825784021,2019_may_23_1041,016,256,20,5,clara,Experiment_EEG_version,20,
Living_Things,../experiment_stimuli/bw_bc_bl/Living_Things/Animals/armadillo_24.jpg,Animals,0,armadillo,0,46,46,1,193.868766339,nV_V,2,193.875881944,195.111378709,1,2,0.691738984315,195.823656053,2,0,0.641625314485,5,7.5,32,bw,99.7825784021,2019_may_23_1041,016,256,20,5,clara,Experiment_EEG_version,20,
Living_Things,../experiment_stimuli/bw_bc_bl/Living_Things/Marine_creatures/whale_4.jpg,Marine_creatures,0,whale,0,47,47,94,198.198192542,V_nV,1,198.203018947,199.430763033,1,1,0.270662315655,199.721981366,1,1,0.270813933574,5,7.5,32,bw,99.7825784021,2019_may_23_1041,016,256,20,5,clara,Experiment_EEG_version,20,
Living_Things,../experiment_stimuli/bw_bc_bl/Living_Things/Marine_creatures/sperm-whale_23.jpg,Marine_creatures,0,sperm-whale,0,48,48,80,201.725849585,V_nV,1,201.730636182,202.988508505,0,2,4.61025121086,207.619308723,2,0,1.51351689966,5,6.0,32,bw,99.7825784021,2019_may_23_1041,016,256,20,5,clara,Experiment_EEG_version,20,
Living_Things,../experiment_stimuli/bw_bc_bl/Living_Things/Birds/goose_19.jpg,Birds,0,goose,0,49,49,34,210.865731699,nV_V,2,210.870654376,212.118345591,1,2,0.551270292839,212.690166063,2,0,0.190643322421,5,6.0,32,bw,99.7825784021,2019_may_23_1041,016,256,20,5,clara,Experiment_EEG_version,20,
Nonliving_Things,../experiment_stimuli/bw_bc_bl/Nonliving_Things/Kitchen_Uten/cup_11.jpg,Kitchen_Uten,0,cup,0,50,50,22,214.613868174,nV_V,1,214.61872768,215.856469555,1,1,0.942278073169,216.829322765,2,0,0.0703758005984,5,6.0,32,bw,99.7825784021,2019_may_23_1041,016,256,20,5,clara,Experiment_EEG_version,20,
Living_Things,../experiment_stimuli/bw_bc_bl/Living_Things/Animals/turtle_8.jpg,Animals,0,turtle,0,51,51,90,218.632608394,V_nV,1,218.637471317,219.865186415,1,1,0.350831208518,220.236571513,1,1,0.190639562905,5,6.0,32,bw,99.7825784021,2019_may_23_1041,016,256,20,5,clara,Experiment_EEG_version,20,
Living_Things,../experiment_stimuli/bw_bc_bl/Living_Things/Marine_creatures/manatee_0.jpg,Marine_creatures,0,manatee,0,52,52,52,222.160277688,V_nV,1,222.165258384,223.40287449,1,1,0.641466538887,224.064910938,2,0,0.0403073625639,5,6.0,32,bw,99.7825784021,2019_may_23_1041,016,256,20,5,clara,Experiment_EEG_version,20,
Living_Things,../experiment_stimuli/bw_bc_bl/Living_Things/Animals/tiger_3.jpg,Animals,0,tiger,0,53,53,84,225.838268142,V_nV,1,225.843403921,227.080872098,0,2,0.471251645358,227.572689746,2,0,0.190628533019,5,6.0,32,bw,99.7825784021,2019_may_23_1041,016,256,20,5,clara,Experiment_EEG_version,20,
Living_Things,../experiment_stimuli/bw_bc_bl/Living_Things/Birds/duck_15.jpg,Birds,0,duck,0,54,54,26,229.496224179,nV_V,2,229.501056422,230.738824639,0,1,1.00242019631,231.761812631,2,0,0.140517923748,5,7.5,32,bw,99.7825784021,2019_may_23_1041,016,256,20,5,clara,Experiment_EEG_version,20,
Nonliving_Things,../experiment_stimuli/bw_bc_bl/Nonliving_Things/Furniture/table_25.jpg,Furniture,0,table,0,55,55,81,233.635218459,V_nV,2,233.64002807,234.867799265,0,1,0.471253333613,235.359618458,1,1,0.240745093673,5,6.0,32,bw,99.7825784021,2019_may_23_1041,016,256,20,5,clara,Experiment_EEG_version,20,
Nonliving_Things,../experiment_stimuli/bw_bc_bl/Nonliving_Things/Furniture/lamp_19.jpg,Furniture,0,lamp,0,56,56,46,237.33329667,V_nV,2,237.338058305,238.58588043,0,1,1.17277338449,239.779206874,1,1,0.210671843961,5,6.5,32,bw,99.7825784021,2019_may_23_1041,016,256,20,5,clara,Experiment_EEG_version,20,
Living_Things,../experiment_stimuli/bw_bc_bl/Living_Things/Birds/goldfinch_13.jpg,Birds,0,goldfinch,0,57,57,33,241.722818177,V_nV,1,241.727613981,242.98545161,0,2,1.19282171782,244.198813868,2,0,0.180609744275,5,6.5,32,bw,99.7825784021,2019_may_23_1041,016,256,20,5,clara,Experiment_EEG_version,20,
Nonliving_Things,../experiment_stimuli/bw_bc_bl/Nonliving_Things/Kitchen_Uten/teapot_25.jpg,Kitchen_Uten,0,teapot,0,58,58,83,246.11234276,nV_V,1,246.117189942,247.364969505,1,1,1.2529498979,248.638477838,1,1,0.200647735503,5,6.5,32,bw,99.7825784021,2019_may_23_1041,016,256,20,5,clara,Experiment_EEG_version,20,
Nonliving_Things,../experiment_stimuli/bw_bc_bl/Nonliving_Things/Kitchen_Uten/coking-pot_0.jpg,Kitchen_Uten,0,coking-pot,0,59,59,18,250.572042781,V_nV,2,250.576958012,251.844709311,1,2,0.661670783535,252.526945934,2,0,0.170584173407,5,6.0,32,bw,99.7825784021,2019_may_23_1041,016,256,20,5,clara,Experiment_EEG_version,20,
Nonliving_Things,../experiment_stimuli/bw_bc_bl/Nonliving_Things/Musical_Inst/violin_8.jpg,Musical_Inst,0,violin,0,60,60,92,254.430439298,nV_V,1,254.435368133,255.683061711,1,1,0.71178339608,256.415401344,2,0,0.11048299307,5,6.5,32,bw,99.7825784021,2019_may_23_1041,016,256,20,5,clara,Experiment_EEG_version,20,
Living_Things,../experiment_stimuli/bw_bc_bl/Living_Things/Insects/butterfly_24.jpg,Insects,0,butterfly,0,61,61,10,258.258745831,nV_V,2,258.263608709,259.501363674,0,1,0.751864581602,260.273775184,1,1,0.250772990985,5,7.0,32,bw,99.7825784021,2019_may_23_1041,016,256,20,5,clara,Experiment_EEG_version,20,
Nonliving_Things,../experiment_stimuli/bw_bc_bl/Nonliving_Things/Vehicles/van_14.jpg,Vehicles,0,van,0,62,62,91,262.257446072,V_nV,2,262.26223754,263.520091199,1,2,1.11264311429,264.653304274,3,0,0.150553151965,5,8.0,32,bw,99.7825784021,2019_may_23_1041,016,256,20,5,clara,Experiment_EEG_version,20,
Nonliving_Things,../experiment_stimuli/bw_bc_bl/Nonliving_Things/Tools/hammer_18.jpg,Tools,0,hammer,0,63,63,37,266.536751507,V_nV,2,266.541607952,267.789371184,0,1,2.91656918149,270.72650174,1,1,0.200654329266,5,6.0,32,bw,99.7825784021,2019_may_23_1041,016,256,20,5,clara,Experiment_EEG_version,20,
Nonliving_Things,../experiment_stimuli/bw_bc_bl/Nonliving_Things/Buildings/factory_2.jpg,Buildings,0,factory,0,64,64,28,272.660078338,nV_V,1,272.66633103,273.942750532,1,1,4.53007231792,278.493371612,1,1,0.220694891876,5,7.5,32,bw,99.7825784021,2019_may_23_1041,016,256,20,5,clara,Experiment_EEG_version,20,
Nonliving_Things,../experiment_stimuli/bw_bc_bl/Nonliving_Things/Musical_Inst/trumpet_10.jpg,Musical_Inst,0,trumpet,0,65,65,88,280.446983897,V_nV,2,280.454649057,281.739707947,1,2,1.15257410239,282.922853852,3,0,0.0803994089365,5,6.0,32,bw,99.7825784021,2019_may_23_1041,016,256,20,5,clara,Experiment_EEG_version,20,
Nonliving_Things,../experiment_stimuli/bw_bc_bl/Nonliving_Things/Kitchen_Uten/fondue_9.jpg,Kitchen_Uten,0,fondue,0,66,66,30,284.736309016,V_nV,2,284.741246046,285.998965448,1,2,0.381060425891,286.400578463,3,0,0.140554156154,5,8.0,32,bw,99.7825784021,2019_may_23_1041,016,256,20,5,clara,Experiment_EEG_version,20,
Living_Things,../experiment_stimuli/bw_bc_bl/Living_Things/Birds/partridge_6.jpg,Birds,0,partridge,0,67,67,59,288.274005265,nV_V,2,288.279053177,289.51660689,0,1,0.521388596622,290.058574206,3,0,0.0703683306929,5,8.0,32,bw,99.7825784021,2019_may_23_1041,016,256,20,5,clara,Experiment_EEG_version,20,
Nonliving_Things,../experiment_stimuli/bw_bc_bl/Nonliving_Things/Vehicles/bus_21.jpg,Vehicles,0,bus,0,68,68,9,291.861808983,V_nV,2,291.866761829,293.094383173,0,1,1.42335286713,294.538312347,2,0,0.140527058626,5,6.5,32,bw,99.7825784021,2019_may_23_1041,016,256,20,5,clara,Experiment_EEG_version,20,
Living_Things,../experiment_stimuli/bw_bc_bl/Living_Things/Birds/magpie_0.jpg,Birds,0,magpie,0,69,69,51,296.411695716,nV_V,2,296.416713855,297.644273564,0,1,0.531376322266,298.196218377,1,1,0.200655656634,5,7.5,32,bw,99.7825784021,2019_may_23_1041,016,256,20,5,clara,Experiment_EEG_version,20,
Living_Things,../experiment_stimuli/bw_bc_bl/Living_Things/Birds/pelican_10.jpg,Birds,0,pelican,0,70,70,60,300.129775129,V_nV,1,300.134841636,301.392428697,1,1,0.661667005159,302.074647896,2,0,0.070370398229,5,7.0,32,bw,99.7825784021,2019_may_23_1041,016,256,20,5,clara,Experiment_EEG_version,20,
Nonliving_Things,../experiment_stimuli/bw_bc_bl/Nonliving_Things/Furniture/bookcase_22.jpg,Furniture,0,bookcase,0,71,71,8,303.877925221,V_nV,2,303.884178274,305.130550936,0,1,1.81417086441,306.965281611,1,1,0.180612567347,5,7.5,32,bw,99.7825784021,2019_may_23_1041,016,256,20,5,clara,Experiment_EEG_version,20,
Nonliving_Things,../experiment_stimuli/bw_bc_bl/Nonliving_Things/Buildings/palace_23.jpg,Buildings,0,palace,0,72,72,58,308.878798514,V_nV,2,308.886649605,310.161489152,1,2,0.641615044093,310.823677187,2,0,0.280834083213,5,6.0,32,bw,99.7825784021,2019_may_23_1041,016,256,20,5,clara,Experiment_EEG_version,20,
Nonliving_Things,../experiment_stimuli/bw_bc_bl/Nonliving_Things/Vehicles/train_3.jpg,Vehicles,0,train,0,73,73,87,312.837399164,V_nV,2,312.842489872,314.110080899,1,2,0.962315590354,315.092948488,3,0,0.260785546852,5,7.5,32,bw,99.7825784021,2019_may_23_1041,016,256,20,5,clara,Experiment_EEG_version,20,
Living_Things,../experiment_stimuli/bw_bc_bl/Living_Things/Insects/dragonfly_8.jpg,Insects,0,dragonfly,0,74,74,24,317.086639424,nV_V,2,317.091781354,318.339265184,1,2,0.621586725814,318.981401867,3,0,0.130515578203,5,6.5,32,bw,99.7825784021,2019_may_23_1041,016,256,20,5,clara,Experiment_EEG_version,20,
Living_Things,../experiment_stimuli/bw_bc_bl/Living_Things/Birds/barn-owl_3.jpg,Birds,0,barn-owl,0,75,75,4,320.844815951,nV_V,2,320.849934784,322.087416189,0,1,0.761898475932,322.869882231,1,1,0.210677268449,5,8.0,32,bw,99.7825784021,2019_may_23_1041,016,256,20,5,clara,Experiment_EEG_version,20,
Nonliving_Things,../experiment_stimuli/bw_bc_bl/Nonliving_Things/Vehicles/tractor_14.jpg,Vehicles,0,tractor,0,76,76,86,324.813438949,V_nV,2,324.818495794,326.066064183,0,1,1.12266445206,327.209298878,1,1,0.170589150861,5,6.0,32,bw,99.7825784021,2019_may_23_1041,016,256,20,5,clara,Experiment_EEG_version,20,
Living_Things,../experiment_stimuli/bw_bc_bl/Living_Things/Marine_creatures/narwhal_12.jpg,Marine_creatures,0,narwhal,0,77,77,55,329.112783831,nV_V,2,329.117854829,330.395474848,0,1,1.89434626838,332.310379544,3,0,0.18061443232,5,6.0,32,bw,99.7825784021,2019_may_23_1041,016,256,20,5,clara,Experiment_EEG_version,20,
Nonliving_Things,../experiment_stimuli/bw_bc_bl/Nonliving_Things/Musical_Inst/drum_14.jpg,Musical_Inst,0,drum,0,78,78,25,334.223903177,nV_V,1,334.228925485,335.476521437,1,1,0.501339775044,335.998414466,3,0,0.0703695220873,5,6.5,32,bw,99.7825784021,2019_may_23_1041,016,256,20,5,clara,Experiment_EEG_version,20,
Nonliving_Things,../experiment_stimuli/bw_bc_bl/Nonliving_Things/Buildings/church_22.jpg,Buildings,0,church,0,79,79,17,337.801676682,nV_V,1,337.806870213,339.034258703,1,1,0.471240521874,339.52607211,1,1,0.180609631352,5,6.5,32,bw,99.7825784021,2019_may_23_1041,016,256,20,5,clara,Experiment_EEG_version,20,
Nonliving_Things,../experiment_stimuli/bw_bc_bl/Nonliving_Things/Furniture/chair_18.jpg,Furniture,0,chair,0,80,80,15,341.439587668,V_nV,2,341.446401037,342.692209368,1,2,0.671693102224,343.384457649,1,1,0.150569843594,5,6.0,32,bw,99.7825784021,2019_may_23_1041,016,256,20,5,clara,Experiment_EEG_version,20,
Nonliving_Things,../experiment_stimuli/bw_bc_bl/Nonliving_Things/Furniture/lectern_23.jpg,Furniture,0,lectern,0,81,81,47,345.277959547,V_nV,2,345.284654984,346.550600102,1,2,0.471263724379,347.042431961,1,1,0.0603512744419,5,6.0,32,bw,99.7825784021,2019_may_23_1041,016,256,20,5,clara,Experiment_EEG_version,20,
Living_Things,../experiment_stimuli/bw_bc_bl/Living_Things/Animals/cat_5.jpg,Animals,0,cat,0,82,82,13,348.835657922,V_nV,1,348.840785638,350.128373581,1,1,1.47343045054,351.62236576,2,0,0.130500006722,5,6.0,32,bw,99.7825784021,2019_may_23_1041,016,256,20,5,clara,Experiment_EEG_version,20,
Living_Things,../experiment_stimuli/bw_bc_bl/Living_Things/Birds/penguin_13.jpg,Birds,0,penguin,0,83,83,61,353.485796472,V_nV,1,353.491118455,354.768461748,1,1,0.39107807586,355.180095876,2,0,0.0603556919377,5,6.5,32,bw,99.7825784021,2019_may_23_1041,016,256,20,5,clara,Experiment_EEG_version,20,
Nonliving_Things,../experiment_stimuli/bw_bc_bl/Nonliving_Things/Furniture/bedside-table_19.jpg,Furniture,0,bedside-table,0,84,84,6,356.983396069,V_nV,2,356.988744778,358.24602179,1,2,0.431162629509,358.697736415,1,1,0.0904096190352,5,6.0,32,bw,99.7825784021,2019_may_23_1041,016,256,20,5,clara,Experiment_EEG_version,20,
Nonliving_Things,../experiment_stimuli/bw_bc_bl/Nonliving_Things/Musical_Inst/saxophone_14.jpg,Musical_Inst,0,saxophone,0,85,85,72,360.521065231,V_nV,2,360.526487969,361.823804739,1,2,0.551427110331,362.395782059,3,0,0.0803956119344,5,6.0,32,bw,99.7825784021,2019_may_23_1041,016,256,20,5,clara,Experiment_EEG_version,20,
Living_Things,../experiment_stimuli/bw_bc_bl/Living_Things/Animals/horse_17.jpg,Animals,0,horse,0,86,86,40,364.209086063,V_nV,1,364.214667923,365.471733206,1,1,0.471258149249,365.963566192,2,0,0.100443486357,5,6.0,32,bw,99.7825784021,2019_may_23_1041,016,256,20,5,clara,Experiment_EEG_version,20,
Living_Things,../experiment_stimuli/bw_bc_bl/Living_Things/Marine_creatures/killer-whale_17.jpg,Marine_creatures,0,killer-whale,0,87,87,43,367.79688394,nV_V,2,367.80209341,369.059534722,0,1,0.551430264488,369.631527861,2,0,0.0803933974821,5,6.0,32,bw,99.7825784021,2019_may_23_1041,016,256,20,5,clara,Experiment_EEG_version,20,
Nonliving_Things,../experiment_stimuli/bw_bc_bl/Nonliving_Things/Tools/axe_26.jpg,Tools,0,axe,0,88,88,3,371.454842097,nV_V,1,371.460124962,372.707462196,1,1,0.551267495845,373.279304247,2,0,0.0703741426114,5,6.0,32,bw,99.7825784021,2019_may_23_1041,016,256,20,5,clara,Experiment_EEG_version,20,
Nonliving_Things,../experiment_stimuli/bw_bc_bl/Nonliving_Things/Buildings/house_22.jpg,Buildings,0,house,0,89,89,41,375.092750681,nV_V,1,375.09803523,376.325328014,0,2,1.4333567319,377.779253928,2,0,0.471247228328,5,7.0,32,bw,99.7825784021,2019_may_23_1041,016,256,20,5,clara,Experiment_EEG_version,20,
Nonliving_Things,../experiment_stimuli/bw_bc_bl/Nonliving_Things/Kitchen_Uten/pot_1.jpg,Kitchen_Uten,0,pot,0,90,90,66,379.983373805,V_nV,2,379.988718936,381.22598157,0,1,0.310926133534,381.557473078,1,1,0.170598571887,5,7.5,32,bw,99.7825784021,2019_may_23_1041,016,256,20,5,clara,Experiment_EEG_version,20,
Living_Things,../experiment_stimuli/bw_bc_bl/Living_Things/Animals/lioness_17.jpg,Animals,0,lioness,0,91,91,48,383.460943938,nV_V,2,383.466480854,384.703540755,0,1,0.0202719161753,384.744378444,1,1,0.180618055863,5,6.5,32,bw,99.7825784021,2019_may_23_1041,016,256,20,5,clara,Experiment_EEG_version,20,
Nonliving_Things,../experiment_stimuli/bw_bc_bl/Nonliving_Things/Furniture/rocking-chair_20.jpg,Furniture,0,rocking-chair,0,92,92,69,386.657891205,V_nV,2,386.663491967,387.930554817,1,2,0.561450083274,388.512566831,3,0,0.090265650535,5,6.0,32,bw,99.7825784021,2019_may_23_1041,016,256,20,5,clara,Experiment_EEG_version,20,
Nonliving_Things,../experiment_stimuli/bw_bc_bl/Nonliving_Things/Furniture/sofa_1.jpg,Furniture,0,sofa,0,93,93,78,390.335880226,V_nV,2,390.341450533,391.588510324,1,2,0.381067647832,391.990122178,1,1,0.120482921135,5,6.0,32,bw,99.7825784021,2019_may_23_1041,016,256,20,5,clara,Experiment_EEG_version,20,
Nonliving_Things,../experiment_stimuli/bw_bc_bl/Nonliving_Things/Kitchen_Uten/saucepan_15.jpg,Kitchen_Uten,0,saucepan,0,94,94,71,393.84353192,V_nV,2,393.849171245,395.106164442,1,2,1.80415199627,396.930869204,3,0,0.150552956853,5,6.0,32,bw,99.7825784021,2019_may_23_1041,016,256,20,5,clara,Experiment_EEG_version,20,
Living_Things,../experiment_stimuli/bw_bc_bl/Living_Things/Animals/lynx_17.jpg,Animals,0,lynx,0,95,95,50,398.824352267,V_nV,1,398.830083802,400.056922999,1,1,0.411113680108,400.488588937,1,1,0.160570106469,5,6.0,32,bw,99.7825784021,2019_may_23_1041,016,256,20,5,clara,Experiment_EEG_version,20,
