category,probe_path,subcategory,fixation_duration,label,trials.thisRepN,trials.thisTrialN,trials.thisN,trials.thisIndex,image_onset_time,response_window,correctAns,probe_onset,discrim_resptime,response.corr,response.keys,response.rt,visible_resptime,visible.keys,visible.corr,visible.rt,probeFrames,jitter2,n_square,experiment_color,frameRate,date,session,image_size,premask_dur,probeFrames,participant,expName,postmask_dur,
Nonliving_Things,../experiment_stimuli/bw_bc_bl/Nonliving_Things/Vehicles/plane_8.jpg,Vehicles,0,plane,0,0,0,64,3.71856721072,nV_V,1,3.74041812704,5.00125940843,1,1,1.36319984891,6.39531751117,2,0,0.200702189701,5,6.0,32,bw,99.7848166676,2019_may_22_0949,004,256,20,5,clara,Experiment_EEG_version,20,
Living_Things,../experiment_stimuli/bw_bc_bl/Living_Things/Insects/butterfly_2.jpg,Insects,0,butterfly,0,1,1,10,8.32859064336,V_nV,1,8.3334001305,9.59123722557,0,2,1.07239473565,10.684190881,2,0,0.260783017147,5,6.0,32,bw,99.7848166676,2019_may_22_0949,004,256,20,5,clara,Experiment_EEG_version,20,
Living_Things,../experiment_stimuli/bw_bc_bl/Living_Things/Insects/scorpion_24.jpg,Insects,0,scorpion,0,2,2,73,12.6780347095,nV_V,2,12.6829900821,13.9306699468,1,2,1.18279725243,15.1340179874,1,1,0.150545719778,5,6.0,32,bw,99.7848166676,2019_may_22_0949,004,256,20,5,clara,Experiment_EEG_version,20,
Living_Things,../experiment_stimuli/bw_bc_bl/Living_Things/Birds/sparrow_8.jpg,Birds,0,sparrow,0,3,3,79,17.0174702804,V_nV,1,17.022367774,18.2901386253,0,2,0.511353037553,18.8220587028,2,0,0.320916963974,5,6.0,32,bw,99.7848166676,2019_may_22_0949,004,256,20,5,clara,Experiment_EEG_version,20,
Living_Things,../experiment_stimuli/bw_bc_bl/Living_Things/Birds/duck_17.jpg,Birds,0,duck,0,4,4,26,20.8758558722,V_nV,1,20.880752411,22.1385005447,1,1,0.751854405273,22.9109116821,2,0,0.220696489559,5,7.5,32,bw,99.7848166676,2019_may_22_0949,004,256,20,5,clara,Experiment_EEG_version,20,
Nonliving_Things,../experiment_stimuli/bw_bc_bl/Nonliving_Things/Furniture/sofa_18.jpg,Furniture,0,sofa,0,5,5,78,24.8645242671,V_nV,2,24.8692434852,26.1171540606,1,2,0.521378912497,26.6590776152,3,0,0.230765871704,5,7.0,32,bw,99.7848166676,2019_may_22_0949,004,256,20,5,clara,Experiment_EEG_version,20,
Living_Things,../experiment_stimuli/bw_bc_bl/Living_Things/Animals/cat_8.jpg,Animals,0,cat,0,6,6,13,28.6227193349,nV_V,2,28.6280759613,29.855277356,0,1,0.551427963423,30.4272635703,1,1,0.360999600729,5,6.5,32,bw,99.7848166676,2019_may_22_0949,004,256,20,5,clara,Experiment_EEG_version,20,
Nonliving_Things,../experiment_stimuli/bw_bc_bl/Nonliving_Things/Buildings/cathedral_24.jpg,Buildings,0,cathedral,0,7,7,14,32.5211672815,nV_V,1,32.526582873,33.7738050222,1,1,0.711775163654,34.5061276585,2,0,0.180615537567,5,6.5,32,bw,99.7848166676,2019_may_22_0949,004,256,20,5,clara,Experiment_EEG_version,20,
Nonliving_Things,../experiment_stimuli/bw_bc_bl/Nonliving_Things/Furniture/wardrobe_19.jpg,Furniture,0,wardrobe,0,8,8,93,36.4196612274,nV_V,1,36.4243890732,37.6622494166,1,1,0.621574842371,38.304382758,2,0,0.1806143797,5,6.0,32,bw,99.7848166676,2019_may_22_0949,004,256,20,5,clara,Experiment_EEG_version,20,
Nonliving_Things,../experiment_stimuli/bw_bc_bl/Nonliving_Things/Kitchen_Uten/saucepan_20.jpg,Kitchen_Uten,0,saucepan,0,9,9,71,40.2179188496,nV_V,1,40.2227561257,41.4504840504,1,1,0.862096240046,42.33313959,2,0,0.150539686205,5,6.5,32,bw,99.7848166676,2019_may_22_0949,004,256,20,5,clara,Experiment_EEG_version,20,
Nonliving_Things,../experiment_stimuli/bw_bc_bl/Nonliving_Things/Buildings/church_0.jpg,Buildings,0,church,0,10,10,17,44.2165988679,V_nV,2,44.221536936,45.4491714675,0,1,0.300899690716,45.7706298977,1,1,0.501308463048,5,6.5,32,bw,99.7848166676,2019_may_22_0949,004,256,20,5,clara,Experiment_EEG_version,20,
Living_Things,../experiment_stimuli/bw_bc_bl/Living_Things/Marine_creatures/lobster_17.jpg,Marine_creatures,0,lobster,0,11,11,49,48.0048286484,V_nV,1,48.0097999305,49.2674764642,0,2,0.551266232971,49.839307406,2,0,0.381044655573,5,7.5,32,bw,99.7848166676,2019_may_22_0949,004,256,20,5,clara,Experiment_EEG_version,20,
Nonliving_Things,../experiment_stimuli/bw_bc_bl/Nonliving_Things/Musical_Inst/saxophone_3.jpg,Musical_Inst,0,saxophone,0,12,12,72,51.9534132907,V_nV,2,51.9583159194,53.206037509,1,2,0.200657047099,53.4272389687,2,0,4.10915161693,5,8.0,32,bw,99.7848166676,2019_may_22_0949,004,256,20,5,clara,Experiment_EEG_version,20,
Living_Things,../experiment_stimuli/bw_bc_bl/Living_Things/Animals/hippopotamus_13.jpg,Animals,0,hippopotamus,0,13,13,39,59.269317636,nV_V,2,59.2747525091,60.5119172086,0,1,1.83421283658,62.3667014197,2,0,1.60370558151,5,6.5,32,bw,99.7848166676,2019_may_22_0949,004,256,20,5,clara,Experiment_EEG_version,20,
Nonliving_Things,../experiment_stimuli/bw_bc_bl/Nonliving_Things/Musical_Inst/trumpet_7.jpg,Musical_Inst,0,trumpet,0,14,14,88,65.7033059613,nV_V,1,65.7089458278,66.9358848729,1,1,3.39761017216,70.3540631789,2,0,0.190641472815,5,6.0,32,bw,99.7848166676,2019_may_22_0949,004,256,20,5,clara,Experiment_EEG_version,20,
Nonliving_Things,../experiment_stimuli/bw_bc_bl/Nonliving_Things/Vehicles/ship_12.jpg,Vehicles,0,ship,0,15,15,76,72.2776228713,nV_V,1,72.2832555685,73.5101742945,1,1,0.471279366873,74.0020267465,1,1,0.310886356281,5,7.5,32,bw,99.7848166676,2019_may_22_0949,004,256,20,5,clara,Experiment_EEG_version,20,
Nonliving_Things,../experiment_stimuli/bw_bc_bl/Nonliving_Things/Furniture/couch_25.jpg,Furniture,0,couch,0,16,16,19,76.0457871195,nV_V,1,76.0505605999,77.2984113982,1,1,1.06253246358,78.3815145972,3,0,0.340956068132,5,6.5,32,bw,99.7848166676,2019_may_22_0949,004,256,20,5,clara,Experiment_EEG_version,20,
Nonliving_Things,../experiment_stimuli/bw_bc_bl/Nonliving_Things/Tools/hammer_4.jpg,Tools,0,hammer,0,17,17,37,80.4553770164,V_nV,2,80.4604550223,81.6879538754,0,1,1.00240970799,82.710927255,2,0,0.200654464541,5,8.0,32,bw,99.7848166676,2019_may_22_0949,004,256,20,5,clara,Experiment_EEG_version,20,
Living_Things,../experiment_stimuli/bw_bc_bl/Living_Things/Marine_creatures/pomfret_6.jpg,Marine_creatures,0,pomfret,0,18,18,65,84.6444791912,V_nV,1,84.6494232481,85.8770582832,0,2,0.541400254006,86.4390123931,1,1,0.230720489053,5,6.0,32,bw,99.7848166676,2019_may_22_0949,004,256,20,5,clara,Experiment_EEG_version,20,
Living_Things,../experiment_stimuli/bw_bc_bl/Living_Things/Birds/goldfinch_6.jpg,Birds,0,goldfinch,0,19,19,33,88.4026564476,nV_V,2,88.4075497382,89.6652976354,0,1,0.83203197876,90.5178863909,2,0,0.190630638506,5,6.0,32,bw,99.7848166676,2019_may_22_0949,004,256,20,5,clara,Experiment_EEG_version,20,
Nonliving_Things,../experiment_stimuli/bw_bc_bl/Nonliving_Things/Kitchen_Uten/fondue_4.jpg,Kitchen_Uten,0,fondue,0,20,20,30,92.441436324,V_nV,2,92.4463251785,93.694065219,1,2,0.631597533589,94.3462131838,2,0,0.22070820001,5,6.0,32,bw,99.7848166676,2019_may_22_0949,004,256,20,5,clara,Experiment_EEG_version,20,
Living_Things,../experiment_stimuli/bw_bc_bl/Living_Things/Marine_creatures/dolphin_19.jpg,Marine_creatures,0,dolphin,0,21,21,23,96.2998205964,nV_V,2,96.3060428263,97.5424205107,0,1,0.711784918793,98.2747601126,2,0,0.230571806896,5,6.0,32,bw,99.7848166676,2019_may_22_0949,004,256,20,5,clara,Experiment_EEG_version,20,
Living_Things,../experiment_stimuli/bw_bc_bl/Living_Things/Birds/ostrich_19.jpg,Birds,0,ostrich,0,22,22,56,100.238379419,V_nV,1,100.244648935,101.470965398,0,2,1.82418257417,103.315700084,1,1,0.290854297113,5,8.0,32,bw,99.7848166676,2019_may_22_0949,004,256,20,5,clara,Experiment_EEG_version,20,
Living_Things,../experiment_stimuli/bw_bc_bl/Living_Things/Birds/goose_8.jpg,Birds,0,goose,0,23,23,34,105.339474762,V_nV,1,105.34434394,106.592097353,1,1,1.28300580243,107.895673601,3,0,0.401097233174,5,7.5,32,bw,99.7848166676,2019_may_22_0949,004,256,20,5,clara,Experiment_EEG_version,20,
Nonliving_Things,../experiment_stimuli/bw_bc_bl/Nonliving_Things/Musical_Inst/violin_21.jpg,Musical_Inst,0,violin,0,24,24,92,110.029666148,V_nV,2,110.034525082,111.262255199,1,2,0.611556369578,111.89437989,2,0,0.230722819688,5,8.0,32,bw,99.7848166676,2019_may_22_0949,004,256,20,5,clara,Experiment_EEG_version,20,
Living_Things,../experiment_stimuli/bw_bc_bl/Living_Things/Animals/giraffe_21.jpg,Animals,0,giraffe,0,25,25,32,113.857990866,nV_V,2,113.862919028,115.090572056,0,1,4.52006428479,119.631207162,1,1,0.451204549288,5,6.5,32,bw,99.7848166676,2019_may_22_0949,004,256,20,5,clara,Experiment_EEG_version,20,
Nonliving_Things,../experiment_stimuli/bw_bc_bl/Nonliving_Things/Vehicles/van_3.jpg,Vehicles,0,van,0,26,26,91,121.815288097,V_nV,2,121.821646213,123.077933029,1,2,0.601548057515,123.710071762,3,0,0.230717812665,5,6.0,32,bw,99.7848166676,2019_may_22_0949,004,256,20,5,clara,Experiment_EEG_version,20,
Living_Things,../experiment_stimuli/bw_bc_bl/Living_Things/Animals/lioness_13.jpg,Animals,0,lioness,0,27,27,48,125.67367464,V_nV,1,125.678568626,126.906255976,1,1,1.01246281946,127.93926805,1,1,0.260785077,5,6.0,32,bw,99.7848166676,2019_may_22_0949,004,256,20,5,clara,Experiment_EEG_version,20,
Nonliving_Things,../experiment_stimuli/bw_bc_bl/Nonliving_Things/Buildings/mill_9.jpg,Buildings,0,mill,0,28,28,53,129.932947501,V_nV,2,129.938611898,131.185559878,1,2,0.581493961858,131.787619207,2,0,0.270804568892,5,6.5,32,bw,99.7848166676,2019_may_22_0949,004,256,20,5,clara,Experiment_EEG_version,20,
Living_Things,../experiment_stimuli/bw_bc_bl/Living_Things/Animals/zebra_23.jpg,Animals,0,zebra,0,29,29,95,133.791322003,V_nV,1,133.796248556,135.033926647,0,2,0.50115278922,135.555630559,2,0,0.290853887098,5,6.5,32,bw,99.7848166676,2019_may_22_0949,004,256,20,5,clara,Experiment_EEG_version,20,
Living_Things,../experiment_stimuli/bw_bc_bl/Living_Things/Birds/toucan_2.jpg,Birds,0,toucan,0,30,30,85,137.579557408,nV_V,2,137.584524799,138.812140157,1,2,0.811999915866,139.64472741,1,1,0.150549246231,5,6.0,32,bw,99.7848166676,2019_may_22_0949,004,256,20,5,clara,Experiment_EEG_version,20,
Nonliving_Things,../experiment_stimuli/bw_bc_bl/Nonliving_Things/Musical_Inst/guitar_16.jpg,Musical_Inst,0,guitar,0,31,31,36,141.528143783,nV_V,1,141.533037089,142.790789189,1,1,0.751883258577,143.563266843,3,0,0.300718035083,5,6.0,32,bw,99.7848166676,2019_may_22_0949,004,256,20,5,clara,Experiment_EEG_version,20,
Living_Things,../experiment_stimuli/bw_bc_bl/Living_Things/Animals/turtle_11.jpg,Animals,0,turtle,0,32,32,90,145.596995563,nV_V,2,145.603769744,146.839595327,1,2,2.01459752792,148.87475264,2,0,0.200651216786,5,7.0,32,bw,99.7848166676,2019_may_22_0949,004,256,20,5,clara,Experiment_EEG_version,20,
Nonliving_Things,../experiment_stimuli/bw_bc_bl/Nonliving_Things/Furniture/bookcase_4.jpg,Furniture,0,bookcase,0,33,33,8,150.808325907,V_nV,2,150.813334974,152.04089851,1,2,0.721797053702,152.783257788,1,1,0.230715962825,5,6.0,32,bw,99.7848166676,2019_may_22_0949,004,256,20,5,clara,Experiment_EEG_version,20,
Nonliving_Things,../experiment_stimuli/bw_bc_bl/Nonliving_Things/Furniture/bed_5.jpg,Furniture,0,bed,0,34,34,5,154.746883143,V_nV,2,154.752662891,155.999505982,1,2,0.751882074168,156.77195075,2,0,0.240757976659,5,6.0,32,bw,99.7848166676,2019_may_22_0949,004,256,20,5,clara,Experiment_EEG_version,20,
Living_Things,../experiment_stimuli/bw_bc_bl/Living_Things/Marine_creatures/narwhal_20.jpg,Marine_creatures,0,narwhal,0,35,35,55,158.745573778,nV_V,2,158.750599785,159.988180573,1,2,0.791945582954,160.800666579,2,0,0.180609225295,5,6.0,32,bw,99.7848166676,2019_may_22_0949,004,256,20,5,clara,Experiment_EEG_version,20,
Living_Things,../experiment_stimuli/bw_bc_bl/Living_Things/Insects/ladybird_2.jpg,Insects,0,ladybird,0,36,36,45,162.714222298,V_nV,1,162.71910198,163.946789714,0,2,0.531379265944,164.498712249,1,1,0.250783637865,5,6.0,32,bw,99.7848166676,2019_may_22_0949,004,256,20,5,clara,Experiment_EEG_version,20,
Living_Things,../experiment_stimuli/bw_bc_bl/Living_Things/Marine_creatures/killer-whale_12.jpg,Marine_creatures,0,killer-whale,0,37,37,43,166.482397599,nV_V,2,166.489253196,167.735021923,1,2,1.57364851562,169.329220798,2,0,0.200650660321,5,6.0,32,bw,99.7848166676,2019_may_22_0949,004,256,20,5,clara,Experiment_EEG_version,20,
Living_Things,../experiment_stimuli/bw_bc_bl/Living_Things/Marine_creatures/sperm-whale_15.jpg,Marine_creatures,0,sperm-whale,0,38,38,80,171.262797317,nV_V,2,171.267762212,172.505393021,1,2,0.631612852914,173.157558016,2,0,0.260795110604,5,6.5,32,bw,99.7848166676,2019_may_22_0949,004,256,20,5,clara,Experiment_EEG_version,20,
Nonliving_Things,../experiment_stimuli/bw_bc_bl/Nonliving_Things/Furniture/table_24.jpg,Furniture,0,table,0,39,39,81,175.15130838,V_nV,2,175.158930075,176.383831397,1,2,0.571463124128,176.975857388,1,1,0.300877751084,5,6.0,32,bw,99.7848166676,2019_may_22_0949,004,256,20,5,clara,Experiment_EEG_version,20,
Nonliving_Things,../experiment_stimuli/bw_bc_bl/Nonliving_Things/Furniture/Chest-of-drawers_19.jpg,Furniture,0,Chest-of-drawers,0,40,40,0,179.009651216,nV_V,1,179.014518755,180.252232342,1,1,0.902184654726,181.17497707,1,1,0.240775969112,5,6.5,32,bw,99.7848166676,2019_may_22_0949,004,256,20,5,clara,Experiment_EEG_version,20,
Nonliving_Things,../experiment_stimuli/bw_bc_bl/Nonliving_Things/Furniture/rocking-chair_10.jpg,Furniture,0,rocking-chair,0,41,41,69,183.148637665,V_nV,2,183.154707514,184.421296089,1,2,0.731811681297,185.173659367,3,0,0.340956274886,5,7.5,32,bw,99.7848166676,2019_may_22_0949,004,256,20,5,clara,Experiment_EEG_version,20,
Nonliving_Things,../experiment_stimuli/bw_bc_bl/Nonliving_Things/Furniture/armchair_12.jpg,Furniture,0,armchair,0,42,42,2,187.247539903,nV_V,1,187.254463059,188.500164095,1,1,3.27737255185,191.798093055,2,0,0.290848582517,5,6.0,32,bw,99.7848166676,2019_may_22_0949,004,256,20,5,clara,Experiment_EEG_version,20,
Nonliving_Things,../experiment_stimuli/bw_bc_bl/Nonliving_Things/Buildings/palace_13.jpg,Buildings,0,palace,0,43,43,58,193.821854011,nV_V,1,193.826829361,195.064432558,1,1,1.07255078573,196.157543561,2,0,0.200703734532,5,7.0,32,bw,99.7848166676,2019_may_22_0949,004,256,20,5,clara,Experiment_EEG_version,20,
Nonliving_Things,../experiment_stimuli/bw_bc_bl/Nonliving_Things/Tools/axe_14.jpg,Tools,0,axe,0,44,44,3,198.091109941,V_nV,2,198.0971282,199.323695146,1,2,1.03246906307,200.376720238,2,0,0.250761822099,5,8.0,32,bw,99.7848166676,2019_may_22_0949,004,256,20,5,clara,Experiment_EEG_version,20,
Living_Things,../experiment_stimuli/bw_bc_bl/Living_Things/Birds/seagull_4.jpg,Birds,0,seagull,0,45,45,74,202.360393058,nV_V,2,202.365533266,203.592977717,0,1,3.93880319945,207.562359885,1,1,0.260784520768,5,6.0,32,bw,99.7848166676,2019_may_22_0949,004,256,20,5,clara,Experiment_EEG_version,20,
Living_Things,../experiment_stimuli/bw_bc_bl/Living_Things/Animals/cow_1.jpg,Animals,0,cow,0,46,46,20,209.556046877,nV_V,2,209.561107094,210.80866134,0,1,2.42551300745,213.25474879,1,1,0.290854578838,5,6.0,32,bw,99.7848166676,2019_may_22_0949,004,256,20,5,clara,Experiment_EEG_version,20,
Nonliving_Things,../experiment_stimuli/bw_bc_bl/Nonliving_Things/Vehicles/boat_9.jpg,Vehicles,0,boat,0,47,47,7,215.278480141,V_nV,2,215.283429198,216.541125438,1,2,0.721789896023,217.28350305,3,0,0.200649231672,5,6.0,32,bw,99.7848166676,2019_may_22_0949,004,256,20,5,clara,Experiment_EEG_version,20,
Nonliving_Things,../experiment_stimuli/bw_bc_bl/Nonliving_Things/Furniture/chair_3.jpg,Furniture,0,chair,0,48,48,15,219.217040983,nV_V,1,219.222130959,220.4596663,1,1,0.661662662867,221.141855924,1,1,0.250607685652,5,6.0,32,bw,99.7848166676,2019_may_22_0949,004,256,20,5,clara,Experiment_EEG_version,20,
Nonliving_Things,../experiment_stimuli/bw_bc_bl/Nonliving_Things/Furniture/bedside-table_10.jpg,Furniture,0,bedside-table,0,49,49,6,223.125541977,V_nV,2,223.130618668,224.378164842,1,2,0.571463973727,224.970187161,2,0,0.40110420296,5,7.5,32,bw,99.7848166676,2019_may_22_0949,004,256,20,5,clara,Experiment_EEG_version,20,
Living_Things,../experiment_stimuli/bw_bc_bl/Living_Things/Birds/raven_13.jpg,Birds,0,raven,0,50,50,67,227.104184433,V_nV,1,227.109219583,228.346793175,1,1,0.942278155824,229.309620273,3,0,0.220704869134,5,6.5,32,bw,99.7848166676,2019_may_22_0949,004,256,20,5,clara,Experiment_EEG_version,20,
Living_Things,../experiment_stimuli/bw_bc_bl/Living_Things/Marine_creatures/whale_13.jpg,Marine_creatures,0,whale,0,51,51,94,231.263236069,nV_V,2,231.26927202,232.495815901,0,1,1.36319546192,233.879567253,2,0,0.20050377911,5,6.0,32,bw,99.7848166676,2019_may_22_0949,004,256,20,5,clara,Experiment_EEG_version,20,
Nonliving_Things,../experiment_stimuli/bw_bc_bl/Nonliving_Things/Musical_Inst/drum_4.jpg,Musical_Inst,0,drum,0,52,52,25,235.813121655,nV_V,1,235.818153211,237.045702398,0,2,0.731817184715,237.798100547,1,1,0.150559178321,5,6.0,32,bw,99.7848166676,2019_may_22_0949,004,256,20,5,clara,Experiment_EEG_version,20,
Living_Things,../experiment_stimuli/bw_bc_bl/Living_Things/Animals/elephant_17.jpg,Animals,0,elephant,0,53,53,27,239.681536359,nV_V,2,239.686614914,240.924141811,1,2,0.631616901606,241.576318994,2,0,0.200669291429,5,6.0,32,bw,99.7848166676,2019_may_22_0949,004,256,20,5,clara,Experiment_EEG_version,20,
Living_Things,../experiment_stimuli/bw_bc_bl/Living_Things/Birds/pigeon_15.jpg,Birds,0,pigeon,0,54,54,63,243.509855408,nV_V,2,243.514932527,244.742447082,0,1,0.361003371421,245.123994787,1,1,0.23071995494,5,8.0,32,bw,99.7848166676,2019_may_22_0949,004,256,20,5,clara,Experiment_EEG_version,20,
Living_Things,../experiment_stimuli/bw_bc_bl/Living_Things/Birds/barn-owl_17.jpg,Birds,0,barn-owl,0,55,55,4,247.087633465,V_nV,1,247.092768975,248.340259864,1,1,0.611555843148,248.972362973,2,0,0.140374541981,5,7.5,32,bw,99.7848166676,2019_may_22_0949,004,256,20,5,clara,Experiment_EEG_version,20,
Nonliving_Things,../experiment_stimuli/bw_bc_bl/Nonliving_Things/Buildings/castle_12.jpg,Buildings,0,castle,0,56,56,12,250.845812462,V_nV,2,250.85187242,252.088411005,0,1,0.591353256255,252.700333117,2,0,0.190629092976,5,6.5,32,bw,99.7848166676,2019_may_22_0949,004,256,20,5,clara,Experiment_EEG_version,20,
Nonliving_Things,../experiment_stimuli/bw_bc_bl/Nonliving_Things/Buildings/granary_4.jpg,Buildings,0,granary,0,57,57,35,254.624015725,nV_V,1,254.629172222,255.866621824,1,1,0.631615811493,256.518805976,2,0,0.49129919312,5,6.5,32,bw,99.7848166676,2019_may_22_0949,004,256,20,5,clara,Experiment_EEG_version,20,
Living_Things,../experiment_stimuli/bw_bc_bl/Living_Things/Birds/rooster_19.jpg,Birds,0,rooster,0,58,58,70,258.74298587,V_nV,1,258.749269525,259.975558872,1,1,0.922229029238,260.918346663,1,1,0.250754863489,5,6.0,32,bw,99.7848166676,2019_may_22_0949,004,256,20,5,clara,Experiment_EEG_version,20,
Living_Things,../experiment_stimuli/bw_bc_bl/Living_Things/Birds/partridge_19.jpg,Birds,0,partridge,0,59,59,59,262.902017329,nV_V,2,262.907313276,264.14462603,0,1,0.932269685902,265.097453323,1,1,0.260783625999,5,6.0,32,bw,99.7848166676,2019_may_22_0949,004,256,20,5,clara,Experiment_EEG_version,20,
Nonliving_Things,../experiment_stimuli/bw_bc_bl/Nonliving_Things/Buildings/factory_5.jpg,Buildings,0,factory,0,60,60,28,267.091127591,V_nV,2,267.09723548,268.353771488,1,2,1.0024033736,269.386772694,2,0,0.801805140916,5,6.0,32,bw,99.7848166676,2019_may_22_0949,004,256,20,5,clara,Experiment_EEG_version,20,
Living_Things,../experiment_stimuli/bw_bc_bl/Living_Things/Animals/lynx_2.jpg,Animals,0,lynx,0,61,61,50,271.921620162,nV_V,2,271.926833617,273.174269576,1,2,0.651659411611,273.846466336,2,0,0.240750496043,5,6.5,32,bw,99.7848166676,2019_may_22_0949,004,256,20,5,clara,Experiment_EEG_version,20,
Living_Things,../experiment_stimuli/bw_bc_bl/Living_Things/Birds/hen_11.jpg,Birds,0,hen,0,62,62,38,275.820101496,nV_V,2,275.826428942,277.062703038,1,2,0.53122346336,277.614483241,2,0,0.190635382431,5,6.0,32,bw,99.7848166676,2019_may_22_0949,004,256,20,5,clara,Experiment_EEG_version,20,
Nonliving_Things,../experiment_stimuli/bw_bc_bl/Nonliving_Things/Musical_Inst/piano__2.jpg,Musical_Inst,0,piano,0,63,63,62,279.538183006,V_nV,2,279.54457808,280.770770282,0,1,1.082585586,281.873911604,2,0,0.19068282214,5,6.0,32,bw,99.7848166676,2019_may_22_0949,004,256,20,5,clara,Experiment_EEG_version,20,
Nonliving_Things,../experiment_stimuli/bw_bc_bl/Nonliving_Things/Kitchen_Uten/cup_21.jpg,Kitchen_Uten,0,cup,0,64,64,22,283.79744727,nV_V,1,283.802410225,285.030024434,1,1,0.641463373089,285.692042874,1,1,0.180620375555,5,6.0,32,bw,99.7848166676,2019_may_22_0949,004,256,20,5,clara,Experiment_EEG_version,20,
Living_Things,../experiment_stimuli/bw_bc_bl/Living_Things/Animals/tapir_1.jpg,Animals,0,tapir,0,65,65,82,287.605722298,nV_V,2,287.6111286,288.848329543,0,1,0.641457850812,289.520369422,1,1,0.210672065616,5,7.5,32,bw,99.7848166676,2019_may_22_0949,004,256,20,5,clara,Experiment_EEG_version,20,
Nonliving_Things,../experiment_stimuli/bw_bc_bl/Nonliving_Things/Furniture/filling-cabinet_20.jpg,Furniture,0,filling-cabinet,0,66,66,29,291.46411348,V_nV,2,291.46939605,292.716735394,1,2,3.61809000652,296.355391779,2,0,0.23070933111,5,7.5,32,bw,99.7848166676,2019_may_22_0949,004,256,20,5,clara,Experiment_EEG_version,20,
Living_Things,../experiment_stimuli/bw_bc_bl/Living_Things/Animals/rhino_23.jpg,Animals,0,rhino,0,67,67,68,298.319019991,V_nV,1,298.325521492,299.561619206,0,2,0.952319666045,300.534500021,2,0,0.240740022389,5,8.0,32,bw,99.7848166676,2019_may_22_0949,004,256,20,5,clara,Experiment_EEG_version,20,
Nonliving_Things,../experiment_stimuli/bw_bc_bl/Nonliving_Things/Vehicles/bus_13.jpg,Vehicles,0,bus,0,68,68,9,302.508120719,nV_V,1,302.513148007,303.740701939,0,2,0.882135794964,304.643406247,2,0,0.822005550843,5,6.0,32,bw,99.7848166676,2019_may_22_0949,004,256,20,5,clara,Experiment_EEG_version,20,
Nonliving_Things,../experiment_stimuli/bw_bc_bl/Nonliving_Things/Furniture/lamp_4.jpg,Furniture,0,lamp,0,69,69,46,307.198321931,nV_V,1,307.203530684,308.430898591,1,1,0.661657433957,309.113111572,1,1,0.230568589177,5,7.0,32,bw,99.7848166676,2019_may_22_0949,004,256,20,5,clara,Experiment_EEG_version,20,
Living_Things,../experiment_stimuli/bw_bc_bl/Living_Things/Animals/cheetah_2.jpg,Animals,0,cheetah,0,70,70,16,311.076747277,V_nV,1,311.082098426,312.329386229,1,1,1.13269418012,313.482630946,2,0,0.180616887053,5,7.0,32,bw,99.7848166676,2019_may_22_0949,004,256,20,5,clara,Experiment_EEG_version,20,
Living_Things,../experiment_stimuli/bw_bc_bl/Living_Things/Animals/horse_2.jpg,Animals,0,horse,0,71,71,40,315.396161244,V_nV,1,315.401518693,316.638743546,0,2,0.671688290313,317.330987403,2,0,0.190634221071,5,6.0,32,bw,99.7848166676,2019_may_22_0949,004,256,20,5,clara,Experiment_EEG_version,20,
Living_Things,../experiment_stimuli/bw_bc_bl/Living_Things/Animals/armadillo_19.jpg,Animals,0,armadillo,0,72,72,1,319.254545336,V_nV,1,319.261061047,320.487111924,0,2,0.902028010227,321.409716895,1,1,0.260791156208,5,6.0,32,bw,99.7848166676,2019_may_22_0949,004,256,20,5,clara,Experiment_EEG_version,20,
Nonliving_Things,../experiment_stimuli/bw_bc_bl/Nonliving_Things/Vehicles/car_7.jpg,Vehicles,0,car,0,73,73,11,323.403546532,nV_V,1,323.408827133,324.656175337,1,1,0.651642231504,325.328370744,3,0,0.210677520605,5,6.0,32,bw,99.7848166676,2019_may_22_0949,004,256,20,5,clara,Experiment_EEG_version,20,
Living_Things,../experiment_stimuli/bw_bc_bl/Living_Things/Birds/hummingbird_14.jpg,Birds,0,hummingbird,0,74,74,42,327.271971356,nV_V,2,327.278608193,328.504539974,0,1,1.66384057351,330.188959701,1,1,0.260785622057,5,7.5,32,bw,99.7848166676,2019_may_22_0949,004,256,20,5,clara,Experiment_EEG_version,20,
Living_Things,../experiment_stimuli/bw_bc_bl/Living_Things/Birds/kiwi_17.jpg,Birds,0,kiwi,0,75,75,44,332.182632847,nV_V,2,332.189267677,333.455308256,1,2,0.862102671992,334.337958055,2,0,0.230717725819,5,7.0,32,bw,99.7848166676,2019_may_22_0949,004,256,20,5,clara,Experiment_EEG_version,20,
Living_Things,../experiment_stimuli/bw_bc_bl/Living_Things/Marine_creatures/shark_13.jpg,Marine_creatures,0,shark,0,76,76,75,336.301585125,nV_V,2,336.306902173,337.554218471,1,2,0.811995675554,338.386769431,2,0,0.230713692028,5,8.0,32,bw,99.7848166676,2019_may_22_0949,004,256,20,5,clara,Experiment_EEG_version,20,
Living_Things,../experiment_stimuli/bw_bc_bl/Living_Things/Animals/tiger_20.jpg,Animals,0,tiger,0,77,77,84,340.350391038,nV_V,2,340.355683804,341.603017174,0,1,0.902201421326,342.52577265,2,0,0.170600767247,5,6.0,32,bw,99.7848166676,2019_may_22_0949,004,256,20,5,clara,Experiment_EEG_version,20,
Living_Things,../experiment_stimuli/bw_bc_bl/Living_Things/Birds/penguin_22.jpg,Birds,0,penguin,0,78,78,61,344.429273438,nV_V,2,344.434655297,345.661843647,0,1,0.421491858317,346.103884169,1,1,0.230731567834,5,6.0,32,bw,99.7848166676,2019_may_22_0949,004,256,20,5,clara,Experiment_EEG_version,20,
Nonliving_Things,../experiment_stimuli/bw_bc_bl/Nonliving_Things/Vehicles/tractor_4.jpg,Vehicles,0,tractor,0,79,79,86,348.067169368,nV_V,1,348.072491032,349.309775444,1,1,0.371036306256,349.70135749,1,1,0.310895821778,5,6.5,32,bw,99.7848166676,2019_may_22_0949,004,256,20,5,clara,Experiment_EEG_version,20,
Living_Things,../experiment_stimuli/bw_bc_bl/Living_Things/Birds/pelican_21.jpg,Birds,0,pelican,0,80,80,60,351.745159351,nV_V,2,351.750639724,353.007813133,1,2,0.781920233974,353.810298704,2,0,0.260786468163,5,6.0,32,bw,99.7848166676,2019_may_22_0949,004,256,20,5,clara,Experiment_EEG_version,20,
Nonliving_Things,../experiment_stimuli/bw_bc_bl/Nonliving_Things/Kitchen_Uten/pot_21.jpg,Kitchen_Uten,0,pot,0,81,81,66,355.803984768,V_nV,2,355.809337244,357.056612727,1,2,1.00240472658,358.079600655,1,1,0.210676791146,5,6.0,32,bw,99.7848166676,2019_may_22_0949,004,256,20,5,clara,Experiment_EEG_version,20,
Nonliving_Things,../experiment_stimuli/bw_bc_bl/Nonliving_Things/Kitchen_Uten/frying-pan_23.jpg,Kitchen_Uten,0,frying-pan,0,82,82,31,360.023168445,V_nV,2,360.02856198,361.285809286,1,2,0.69174196152,361.998124423,2,0,0.240762074711,5,6.0,32,bw,99.7848166676,2019_may_22_0949,004,256,20,5,clara,Experiment_EEG_version,20,
Nonliving_Things,../experiment_stimuli/bw_bc_bl/Nonliving_Things/Kitchen_Uten/coking-pot_13.jpg,Kitchen_Uten,0,coking-pot,0,83,83,18,363.971745489,V_nV,2,363.977163298,365.224373158,1,2,0.551425802056,365.796340572,2,0,0.240783401299,5,7.0,32,bw,99.7848166676,2019_may_22_0949,004,256,20,5,clara,Experiment_EEG_version,20,
Nonliving_Things,../experiment_stimuli/bw_bc_bl/Nonliving_Things/Furniture/lectern_14.jpg,Furniture,0,lectern,0,84,84,47,367.77000681,nV_V,1,367.775606613,369.012610232,1,1,0.76188238943,369.79503573,2,0,0.260774427326,5,7.5,32,bw,99.7848166676,2019_may_22_0949,004,256,20,5,clara,Experiment_EEG_version,20,
Nonliving_Things,../experiment_stimuli/bw_bc_bl/Nonliving_Things/Vehicles/motorbike_20.jpg,Vehicles,0,motorbike,0,85,85,54,371.798766834,nV_V,1,371.804438929,373.04136985,0,2,0.561447256012,373.62338462,2,0,0.260785272811,5,6.0,32,bw,99.7848166676,2019_may_22_0949,004,256,20,5,clara,Experiment_EEG_version,20,
Nonliving_Things,../experiment_stimuli/bw_bc_bl/Nonliving_Things/Vehicles/train_13.jpg,Vehicles,0,train,0,86,86,87,375.617062195,nV_V,1,375.624252254,376.859683719,0,2,0.491295960033,377.371529888,2,0,0.230723083252,5,8.0,32,bw,99.7848166676,2019_may_22_0949,004,256,20,5,clara,Experiment_EEG_version,20,
Nonliving_Things,../experiment_stimuli/bw_bc_bl/Nonliving_Things/Kitchen_Uten/teapot_13.jpg,Kitchen_Uten,0,teapot,0,87,87,83,379.33514548,nV_V,1,379.340731194,380.567729403,1,1,0.671695406316,381.259988455,2,0,0.260779817821,5,6.0,32,bw,99.7848166676,2019_may_22_0949,004,256,20,5,clara,Experiment_EEG_version,20,
Living_Things,../experiment_stimuli/bw_bc_bl/Living_Things/Birds/magpie_1.jpg,Birds,0,magpie,0,88,88,51,383.253692316,V_nV,1,383.259305754,384.486245972,1,1,1.46340983477,385.970215343,1,1,0.240741112735,5,6.0,32,bw,99.7848166676,2019_may_22_0949,004,256,20,5,clara,Experiment_EEG_version,20,
Living_Things,../experiment_stimuli/bw_bc_bl/Living_Things/Insects/dragonfly_25.jpg,Insects,0,dragonfly,0,89,89,24,387.943867277,nV_V,2,387.949614615,389.186474191,1,2,1.08257830772,390.289595972,1,1,0.391068527009,5,7.0,32,bw,99.7848166676,2019_may_22_0949,004,256,20,5,clara,Experiment_EEG_version,20,
Nonliving_Things,../experiment_stimuli/bw_bc_bl/Nonliving_Things/Musical_Inst/tuba_9.jpg,Musical_Inst,0,tuba,0,90,90,89,392.413579098,nV_V,1,392.419382098,393.686258195,1,1,1.43335715635,395.140165809,3,0,0.521368348971,5,8.0,32,bw,99.7848166676,2019_may_22_0949,004,256,20,5,clara,Experiment_EEG_version,20,
Living_Things,../experiment_stimuli/bw_bc_bl/Living_Things/Marine_creatures/crab_11.jpg,Marine_creatures,0,crab,0,91,91,21,397.394412517,V_nV,1,397.40015725,398.637014579,0,2,0.451210083207,399.108827588,1,1,0.180609323084,5,7.0,32,bw,99.7848166676,2019_may_22_0949,004,256,20,5,clara,Experiment_EEG_version,20,
Nonliving_Things,../experiment_stimuli/bw_bc_bl/Nonliving_Things/Buildings/house_19.jpg,Buildings,0,house,0,92,92,41,401.022294305,nV_V,1,401.027873691,402.294967402,1,1,0.902186714346,403.217730036,2,0,0.260634289822,5,6.5,32,bw,99.7848166676,2019_may_22_0949,004,256,20,5,clara,Experiment_EEG_version,20,
Living_Things,../experiment_stimuli/bw_bc_bl/Living_Things/Birds/owl_0.jpg,Birds,0,owl,0,93,93,57,405.211402138,nV_V,2,405.217219039,406.474048442,1,2,1.12266724138,407.617269783,3,0,0.150598332053,5,6.0,32,bw,99.7848166676,2019_may_22_0949,004,256,20,5,clara,Experiment_EEG_version,20,
Nonliving_Things,../experiment_stimuli/bw_bc_bl/Nonliving_Things/Kitchen_Uten/small-saucepan_19.jpg,Kitchen_Uten,0,small-saucepan,0,94,94,77,409.500726546,nV_V,1,409.508131222,410.743336205,1,1,0.75185431866,411.515755346,1,1,0.270805425942,5,6.0,32,bw,99.7848166676,2019_may_22_0949,004,256,20,5,clara,Experiment_EEG_version,20,
Living_Things,../experiment_stimuli/bw_bc_bl/Living_Things/Marine_creatures/manatee_10.jpg,Marine_creatures,0,manatee,0,95,95,52,413.519475834,V_nV,1,413.525327911,414.782120397,1,1,2.0246288199,416.827311641,3,0,0.160628387704,5,6.5,32,bw,99.7848166676,2019_may_22_0949,004,256,20,5,clara,Experiment_EEG_version,20,
