category,probe_path,subcategory,fixation_duration,label,trials.thisRepN,trials.thisTrialN,trials.thisN,trials.thisIndex,image_onset_time,response_window,correctAns,probe_onset,discrim_resptime,response.corr,response.keys,response.rt,visible_resptime,visible.keys,visible.corr,visible.rt,probeFrames,jitter2,n_square,experiment_color,frameRate,date,session,image_size,premask_dur,probeFrames,participant,expName,postmask_dur,
Nonliving_Things,../experiment_stimuli/bw_bc_bl/Nonliving_Things/Kitchen_Uten/fondue_20.jpg,Kitchen_Uten,0,fondue,0,0,0,30,3.71462828561,nV_V,1,3.73638947424,4.99732207344,1,1,1.22288689599,6.25104334019,2,0,0.801970518427,5,6.5,32,bw,99.7901057947,2019_may_16_1052,005,256,20,5,alvaro,Experiment_EEG_version,20,
Living_Things,../experiment_stimuli/bw_bc_bl/Living_Things/Birds/pelican_8.jpg,Birds,0,pelican,0,1,1,60,8.78564933757,V_nV,1,8.79056546278,10.0482949202,1,1,1.3331248851,11.4019742664,2,0,2.4054527157,5,6.0,32,bw,99.7901057947,2019_may_16_1052,005,256,20,5,alvaro,Experiment_EEG_version,20,
Nonliving_Things,../experiment_stimuli/bw_bc_bl/Nonliving_Things/Musical_Inst/piano__15.jpg,Musical_Inst,0,piano,0,2,2,62,15.5403414387,nV_V,1,15.5457745075,16.7929515219,0,2,1.02245359751,17.8359542874,1,1,2.34532494529,5,6.5,32,bw,99.7901057947,2019_may_16_1052,005,256,20,5,alvaro,Experiment_EEG_version,20,
Living_Things,../experiment_stimuli/bw_bc_bl/Living_Things/Marine_creatures/killer-whale_23.jpg,Marine_creatures,0,killer-whale,0,3,3,43,21.9141848058,V_nV,1,21.9195552478,23.1768305086,0,2,0.521367390291,23.7187678525,1,1,0.15054815216,5,6.5,32,bw,99.7901057947,2019_may_16_1052,005,256,20,5,alvaro,Experiment_EEG_version,20,
Nonliving_Things,../experiment_stimuli/bw_bc_bl/Nonliving_Things/Furniture/wardrobe_2.jpg,Furniture,0,wardrobe,0,4,4,93,25.602205732,V_nV,2,25.607061828,26.8748747837,1,2,0.551431422355,27.4468422915,1,1,0.190483392216,5,8.0,32,bw,99.7901057947,2019_may_16_1052,005,256,20,5,alvaro,Experiment_EEG_version,20,
Nonliving_Things,../experiment_stimuli/bw_bc_bl/Nonliving_Things/Tools/hammer_20.jpg,Tools,0,hammer,0,5,5,37,29.37039539,V_nV,2,29.3752237494,30.6530827982,1,2,0.571474887314,31.2450899325,1,1,0.17059173726,5,6.5,32,bw,99.7901057947,2019_may_16_1052,005,256,20,5,alvaro,Experiment_EEG_version,20,
Living_Things,../experiment_stimuli/bw_bc_bl/Living_Things/Marine_creatures/lobster_3.jpg,Marine_creatures,0,lobster,0,6,6,49,33.1486056487,nV_V,2,33.1536180621,34.451338785,1,2,0.832051594974,35.3039456982,2,0,0.551417625276,5,6.0,32,bw,99.7901057947,2019_may_16_1052,005,256,20,5,alvaro,Experiment_EEG_version,20,
Living_Things,../experiment_stimuli/bw_bc_bl/Living_Things/Birds/toucan_26.jpg,Birds,0,toucan,0,7,7,85,37.5882601262,nV_V,2,37.593208721,38.8809620489,1,2,1.47342170647,40.3749521453,2,0,0.461221356993,5,6.0,32,bw,99.7901057947,2019_may_16_1052,005,256,20,5,alvaro,Experiment_EEG_version,20,
Living_Things,../experiment_stimuli/bw_bc_bl/Living_Things/Marine_creatures/whale_24.jpg,Marine_creatures,0,whale,0,8,8,94,42.5690805753,nV_V,2,42.5749663783,43.8517702728,1,2,0.982364509953,44.8546958868,2,0,0.391100853449,5,6.5,32,bw,99.7901057947,2019_may_16_1052,005,256,20,5,alvaro,Experiment_EEG_version,20,
Nonliving_Things,../experiment_stimuli/bw_bc_bl/Nonliving_Things/Musical_Inst/saxophone_4.jpg,Musical_Inst,0,saxophone,0,9,9,72,46.9786676904,nV_V,1,46.9836033602,48.2513359525,1,1,1.05251838861,49.3243926034,1,1,2.58586001524,5,6.0,32,bw,99.7901057947,2019_may_16_1052,005,256,20,5,alvaro,Experiment_EEG_version,20,
Nonliving_Things,../experiment_stimuli/bw_bc_bl/Nonliving_Things/Buildings/church_24.jpg,Buildings,0,church,0,10,10,17,53.643163519,V_nV,2,53.6491232571,54.9358645959,1,2,0.761893001851,55.7183209839,1,1,0.471301163663,5,6.0,32,bw,99.7901057947,2019_may_16_1052,005,256,20,5,alvaro,Experiment_EEG_version,20,
Nonliving_Things,../experiment_stimuli/bw_bc_bl/Nonliving_Things/Buildings/granary_8.jpg,Buildings,0,granary,0,11,11,35,57.9224589813,nV_V,1,57.9273609036,59.2452296272,1,1,1.68388614373,60.949679871,1,1,0.731817914173,5,7.0,32,bw,99.7901057947,2019_may_16_1052,005,256,20,5,alvaro,Experiment_EEG_version,20,
Living_Things,../experiment_stimuli/bw_bc_bl/Living_Things/Birds/penguin_12.jpg,Birds,0,penguin,0,12,12,61,63.414397193,nV_V,2,63.4199109713,64.7471987404,1,2,2.05470415996,66.8224526852,3,0,0.32092178741,5,6.5,32,bw,99.7901057947,2019_may_16_1052,005,256,20,5,alvaro,Experiment_EEG_version,20,
Nonliving_Things,../experiment_stimuli/bw_bc_bl/Nonliving_Things/Kitchen_Uten/coking-pot_4.jpg,Kitchen_Uten,0,coking-pot,0,13,13,18,68.8762943273,V_nV,2,68.8812082459,70.1890336922,1,2,0.852077601478,71.0616782999,3,0,0.270814260817,5,7.5,32,bw,99.7901057947,2019_may_16_1052,005,256,20,5,alvaro,Experiment_EEG_version,20,
Living_Things,../experiment_stimuli/bw_bc_bl/Living_Things/Animals/elephant_7.jpg,Animals,0,elephant,0,14,14,27,73.0653783447,nV_V,2,73.0702282002,74.358095786,1,2,1.47342640965,75.8520540554,1,1,0.481267934549,5,6.5,32,bw,99.7901057947,2019_may_16_1052,005,256,20,5,alvaro,Experiment_EEG_version,20,
Living_Things,../experiment_stimuli/bw_bc_bl/Living_Things/Marine_creatures/sperm-whale_19.jpg,Marine_creatures,0,sperm-whale,0,15,15,80,78.06625242,V_nV,1,78.0710493026,79.3790100102,1,1,1.45338836929,80.8529378562,2,0,2.46558488463,5,6.0,32,bw,99.7901057947,2019_may_16_1052,005,256,20,5,alvaro,Experiment_EEG_version,20,
Living_Things,../experiment_stimuli/bw_bc_bl/Living_Things/Animals/turtle_6.jpg,Animals,0,turtle,0,16,16,90,85.051432998,V_nV,1,85.0562781884,86.3541629465,1,1,1.57364990655,87.9483675171,1,1,0.711797606898,5,7.0,32,bw,99.7901057947,2019_may_16_1052,005,256,20,5,alvaro,Experiment_EEG_version,20,
Nonliving_Things,../experiment_stimuli/bw_bc_bl/Nonliving_Things/Kitchen_Uten/cup_1.jpg,Kitchen_Uten,0,cup,0,17,17,22,90.3930421937,V_nV,2,90.3992212708,91.7058278549,1,2,1.59369507059,93.3200374137,3,0,0.280835244805,5,6.5,32,bw,99.7901057947,2019_may_16_1052,005,256,20,5,alvaro,Experiment_EEG_version,20,
Living_Things,../experiment_stimuli/bw_bc_bl/Living_Things/Birds/sparrow_4.jpg,Birds,0,sparrow,0,18,18,79,95.3337952052,nV_V,2,95.338820047,96.6264912859,1,2,0.95229380927,97.5993339848,2,0,0.34095991787,5,6.0,32,bw,99.7901057947,2019_may_16_1052,005,256,20,5,alvaro,Experiment_EEG_version,20,
Nonliving_Things,../experiment_stimuli/bw_bc_bl/Nonliving_Things/Furniture/armchair_17.jpg,Furniture,0,armchair,0,19,19,2,99.6732190129,nV_V,1,99.6779764225,100.955907143,1,1,0.691752608167,101.668228607,1,1,0.411109868088,5,7.5,32,bw,99.7901057947,2019_may_16_1052,005,256,20,5,alvaro,Experiment_EEG_version,20,
Living_Things,../experiment_stimuli/bw_bc_bl/Living_Things/Birds/duck_9.jpg,Birds,0,duck,0,20,20,26,103.812223748,V_nV,1,103.817132004,105.114945061,1,1,0.781926128431,105.917416711,1,1,0.320917419042,5,6.5,32,bw,99.7901057947,2019_may_16_1052,005,256,20,5,alvaro,Experiment_EEG_version,20,
Living_Things,../experiment_stimuli/bw_bc_bl/Living_Things/Animals/tiger_5.jpg,Animals,0,tiger,0,21,21,84,107.971261857,nV_V,2,107.976149899,109.304052585,1,2,1.07255965436,110.397168546,1,1,0.200712580234,5,7.5,32,bw,99.7901057947,2019_may_16_1052,005,256,20,5,alvaro,Experiment_EEG_version,20,
Nonliving_Things,../experiment_stimuli/bw_bc_bl/Nonliving_Things/Musical_Inst/tuba_11.jpg,Musical_Inst,0,tuba,0,22,22,89,112.330734968,nV_V,1,112.337182458,113.693595047,1,1,1.06253934663,114.77668746,1,1,0.59150784451,5,6.0,32,bw,99.7901057947,2019_may_16_1052,005,256,20,5,alvaro,Experiment_EEG_version,20,
Nonliving_Things,../experiment_stimuli/bw_bc_bl/Nonliving_Things/Vehicles/boat_16.jpg,Vehicles,0,boat,0,23,23,7,117.101107348,V_nV,2,117.106001109,118.484008125,1,2,3.9588545739,122.463446739,2,0,2.22506022791,5,6.0,32,bw,99.7901057947,2019_may_16_1052,005,256,20,5,alvaro,Experiment_EEG_version,20,
Living_Things,../experiment_stimuli/bw_bc_bl/Living_Things/Birds/pigeon_22.jpg,Birds,0,pigeon,0,24,24,63,126.421366259,V_nV,1,126.426225666,127.794247003,0,2,0.601544073084,128.416386811,1,1,0.381066764239,5,7.5,32,bw,99.7901057947,2019_may_16_1052,005,256,20,5,alvaro,Experiment_EEG_version,20,
Living_Things,../experiment_stimuli/bw_bc_bl/Living_Things/Animals/giraffe_20.jpg,Animals,0,giraffe,0,25,25,32,130.530296296,nV_V,2,130.535300788,131.9332442,1,2,0.631606946932,132.585397123,3,0,0.180619390681,5,6.0,32,bw,99.7901057947,2019_may_16_1052,005,256,20,5,alvaro,Experiment_EEG_version,20,
Nonliving_Things,../experiment_stimuli/bw_bc_bl/Nonliving_Things/Musical_Inst/drum_22.jpg,Musical_Inst,0,drum,0,26,26,25,134.498946602,nV_V,1,134.504624039,135.881828906,1,1,0.58148830384,136.49389885,3,0,0.98235772422,5,6.5,32,bw,99.7901057947,2019_may_16_1052,005,256,20,5,alvaro,Experiment_EEG_version,20,
Living_Things,../experiment_stimuli/bw_bc_bl/Living_Things/Animals/cow_17.jpg,Animals,0,cow,0,27,27,20,139.20915978,V_nV,1,139.214011157,140.572276671,1,1,0.802112828242,141.394698107,3,0,0.310912284069,5,6.0,32,bw,99.7901057947,2019_may_16_1052,005,256,20,5,alvaro,Experiment_EEG_version,20,
Living_Things,../experiment_stimuli/bw_bc_bl/Living_Things/Birds/partridge_22.jpg,Birds,0,partridge,0,28,28,59,143.438357094,V_nV,1,143.443241453,144.781183871,1,1,0.601537772454,145.403272194,3,0,0.240814979654,5,6.0,32,bw,99.7901057947,2019_may_16_1052,005,256,20,5,alvaro,Experiment_EEG_version,20,
Nonliving_Things,../experiment_stimuli/bw_bc_bl/Nonliving_Things/Vehicles/car_0.jpg,Vehicles,0,car,0,29,29,11,147.376919989,V_nV,2,147.382636182,148.699696481,1,2,0.681710312027,149.401962984,1,1,0.68170355272,5,6.0,32,bw,99.7901057947,2019_may_16_1052,005,256,20,5,alvaro,Experiment_EEG_version,20,
Nonliving_Things,../experiment_stimuli/bw_bc_bl/Nonliving_Things/Buildings/house_11.jpg,Buildings,0,house,0,30,30,41,151.81657794,nV_V,1,151.822393789,153.159385724,1,1,1.31307746936,154.493016222,3,0,0.811985228327,5,6.5,32,bw,99.7901057947,2019_may_16_1052,005,256,20,5,alvaro,Experiment_EEG_version,20,
Nonliving_Things,../experiment_stimuli/bw_bc_bl/Nonliving_Things/Buildings/cathedral_19.jpg,Buildings,0,cathedral,0,31,31,14,157.037924979,nV_V,1,157.042937929,158.360694771,1,1,0.631446103565,159.012721933,3,0,0.882141339825,5,6.5,32,bw,99.7901057947,2019_may_16_1052,005,256,20,5,alvaro,Experiment_EEG_version,20,
Nonliving_Things,../experiment_stimuli/bw_bc_bl/Nonliving_Things/Musical_Inst/guitar_8.jpg,Musical_Inst,0,guitar,0,32,32,36,161.627909303,V_nV,2,161.632844924,162.930641604,1,2,0.681714338134,163.632891419,3,0,1.48346187093,5,6.0,32,bw,99.7901057947,2019_may_16_1052,005,256,20,5,alvaro,Experiment_EEG_version,20,
Living_Things,../experiment_stimuli/bw_bc_bl/Living_Things/Birds/goose_9.jpg,Birds,0,goose,0,33,33,34,166.84925027,nV_V,2,166.855065559,168.121915156,1,2,1.47345046944,169.615927805,1,1,0.681704842369,5,6.0,32,bw,99.7901057947,2019_may_16_1052,005,256,20,5,alvaro,Experiment_EEG_version,20,
Living_Things,../experiment_stimuli/bw_bc_bl/Living_Things/Animals/zebra_26.jpg,Animals,0,zebra,0,34,34,95,172.030518472,nV_V,2,172.035501416,173.323235207,1,2,1.042494472,174.386261422,3,0,0.270819764235,5,6.0,32,bw,99.7901057947,2019_may_16_1052,005,256,20,5,alvaro,Experiment_EEG_version,20,
Living_Things,../experiment_stimuli/bw_bc_bl/Living_Things/Animals/tapir_14.jpg,Animals,0,tapir,0,35,35,82,176.390009715,V_nV,1,176.395808041,177.662656725,0,2,0.78192518861,178.465148262,1,1,0.310894220602,5,6.0,32,bw,99.7901057947,2019_may_16_1052,005,256,20,5,alvaro,Experiment_EEG_version,20,
Nonliving_Things,../experiment_stimuli/bw_bc_bl/Nonliving_Things/Kitchen_Uten/teapot_3.jpg,Kitchen_Uten,0,teapot,0,36,36,83,180.508968552,V_nV,2,180.513867049,181.791634212,1,2,0.461238973308,182.273481199,1,1,0.200711193145,5,6.5,32,bw,99.7901057947,2019_may_16_1052,005,256,20,5,alvaro,Experiment_EEG_version,20,
Living_Things,../experiment_stimuli/bw_bc_bl/Living_Things/Birds/rooster_6.jpg,Birds,0,rooster,0,37,37,70,184.206982049,V_nV,1,184.212774402,185.519740342,1,1,1.03249929938,186.572798829,1,1,0.371033765376,5,8.0,32,bw,99.7901057947,2019_may_16_1052,005,256,20,5,alvaro,Experiment_EEG_version,20,
Living_Things,../experiment_stimuli/bw_bc_bl/Living_Things/Birds/barn-owl_13.jpg,Birds,0,barn-owl,0,38,38,4,188.676701077,nV_V,2,188.681573778,190.009511678,1,2,0.982200869592,191.012262553,1,1,0.721795662772,5,7.5,32,bw,99.7901057947,2019_may_16_1052,005,256,20,5,alvaro,Experiment_EEG_version,20,
Nonliving_Things,../experiment_stimuli/bw_bc_bl/Nonliving_Things/Kitchen_Uten/frying-pan_11.jpg,Kitchen_Uten,0,frying-pan,0,39,39,31,193.467111817,V_nV,2,193.471923369,194.829974919,1,2,0.591511637438,195.44203371,3,0,0.220706639695,5,7.5,32,bw,99.7901057947,2019_may_16_1052,005,256,20,5,alvaro,Experiment_EEG_version,20,
Nonliving_Things,../experiment_stimuli/bw_bc_bl/Nonliving_Things/Vehicles/train_19.jpg,Vehicles,0,train,0,40,40,87,197.395657175,V_nV,2,197.400489647,198.728458057,1,2,0.571470680297,199.320483496,3,0,0.401153077953,5,6.0,32,bw,99.7901057947,2019_may_16_1052,005,256,20,5,alvaro,Experiment_EEG_version,20,
Nonliving_Things,../experiment_stimuli/bw_bc_bl/Nonliving_Things/Furniture/couch_21.jpg,Furniture,0,couch,0,41,41,19,201.454487452,nV_V,1,201.459291771,202.757213149,1,1,0.852098823176,203.629856685,1,1,0.260785524733,5,6.5,32,bw,99.7901057947,2019_may_16_1052,005,256,20,5,alvaro,Experiment_EEG_version,20,
Living_Things,../experiment_stimuli/bw_bc_bl/Living_Things/Birds/ostrich_20.jpg,Birds,0,ostrich,0,42,42,56,205.623552249,V_nV,1,205.628411818,206.936295046,1,1,0.741840059869,207.698684402,1,1,0.370880188653,5,6.0,32,bw,99.7901057947,2019_may_16_1052,005,256,20,5,alvaro,Experiment_EEG_version,20,
Living_Things,../experiment_stimuli/bw_bc_bl/Living_Things/Birds/magpie_18.jpg,Birds,0,magpie,0,43,43,51,209.802626774,V_nV,1,209.807654488,211.125401894,1,1,0.361023006495,211.507037003,1,1,0.26079184399,5,6.0,32,bw,99.7901057947,2019_may_16_1052,005,256,20,5,alvaro,Experiment_EEG_version,20,
Nonliving_Things,../experiment_stimuli/bw_bc_bl/Nonliving_Things/Buildings/castle_11.jpg,Buildings,0,castle,0,44,44,12,213.500666433,V_nV,2,213.506596724,214.853506716,1,2,1.19282118022,216.066889838,3,0,0.25076571689,5,6.5,32,bw,99.7901057947,2019_may_16_1052,005,256,20,5,alvaro,Experiment_EEG_version,20,
Living_Things,../experiment_stimuli/bw_bc_bl/Living_Things/Birds/hen_20.jpg,Birds,0,hen,0,45,45,38,218.050555813,nV_V,2,218.055720137,219.383357582,1,2,1.01243091398,220.416343427,1,1,0.74183589092,5,6.5,32,bw,99.7901057947,2019_may_16_1052,005,256,20,5,alvaro,Experiment_EEG_version,20,
Living_Things,../experiment_stimuli/bw_bc_bl/Living_Things/Animals/cat_21.jpg,Animals,0,cat,0,46,46,13,222.891089726,nV_V,2,222.895968716,224.243923107,1,2,1.68373623968,225.948215962,1,1,0.381051118136,5,6.0,32,bw,99.7901057947,2019_may_16_1052,005,256,20,5,alvaro,Experiment_EEG_version,20,
Living_Things,../experiment_stimuli/bw_bc_bl/Living_Things/Insects/scorpion_12.jpg,Insects,0,scorpion,0,47,47,73,228.062323233,nV_V,2,228.067249351,229.445229109,1,2,0.601537291193,230.067301632,1,1,0.180661860271,5,6.5,32,bw,99.7901057947,2019_may_16_1052,005,256,20,5,alvaro,Experiment_EEG_version,20,
Living_Things,../experiment_stimuli/bw_bc_bl/Living_Things/Birds/goldfinch_3.jpg,Birds,0,goldfinch,0,48,48,33,231.980843656,nV_V,2,231.986787928,233.373783297,1,2,0.691725537064,234.086050367,3,0,0.270819441183,5,6.0,32,bw,99.7901057947,2019_may_16_1052,005,256,20,5,alvaro,Experiment_EEG_version,20,
Living_Things,../experiment_stimuli/bw_bc_bl/Living_Things/Marine_creatures/dolphin_25.jpg,Marine_creatures,0,dolphin,0,49,49,23,236.089774749,nV_V,2,236.095709815,237.462655174,1,2,1.6137352162,239.096946348,3,0,0.200655013556,5,7.5,32,bw,99.7901057947,2019_may_16_1052,005,256,20,5,alvaro,Experiment_EEG_version,20,
Living_Things,../experiment_stimuli/bw_bc_bl/Living_Things/Animals/cheetah_22.jpg,Animals,0,cheetah,0,50,50,16,241.030516434,nV_V,2,241.035457363,242.373332955,1,2,2.22506774659,244.618972399,3,0,0.62141981069,5,6.0,32,bw,99.7901057947,2019_may_16_1052,005,256,20,5,alvaro,Experiment_EEG_version,20,
Living_Things,../experiment_stimuli/bw_bc_bl/Living_Things/Animals/rhino_26.jpg,Animals,0,rhino,0,51,51,68,246.973436981,nV_V,2,246.978321365,248.286184481,1,2,0.822025655885,249.128770147,3,0,0.18061081937,5,6.0,32,bw,99.7901057947,2019_may_16_1052,005,256,20,5,alvaro,Experiment_EEG_version,20,
Living_Things,../experiment_stimuli/bw_bc_bl/Living_Things/Animals/lioness_10.jpg,Animals,0,lioness,0,52,52,48,251.042278351,V_nV,1,251.048291043,252.324969181,1,1,2.64598009444,254.991485575,3,0,0.270813850802,5,8.0,32,bw,99.7901057947,2019_may_16_1052,005,256,20,5,alvaro,Experiment_EEG_version,20,
Living_Things,../experiment_stimuli/bw_bc_bl/Living_Things/Insects/butterfly_3.jpg,Insects,0,butterfly,0,53,53,10,256.995240686,V_nV,1,257.00232431,258.247843149,1,1,0.912207225454,259.180636452,3,0,0.180668750894,5,6.0,32,bw,99.7901057947,2019_may_16_1052,005,256,20,5,alvaro,Experiment_EEG_version,20,
Living_Things,../experiment_stimuli/bw_bc_bl/Living_Things/Birds/kiwi_25.jpg,Birds,0,kiwi,0,54,54,44,261.094132679,nV_V,2,261.10015024,262.326712384,1,2,1.37321627687,263.720468326,1,1,0.511331789778,5,6.0,32,bw,99.7901057947,2019_may_16_1052,005,256,20,5,alvaro,Experiment_EEG_version,20,
Nonliving_Things,../experiment_stimuli/bw_bc_bl/Nonliving_Things/Vehicles/plane_14.jpg,Vehicles,0,plane,0,55,55,64,265.964736064,nV_V,1,265.970743004,267.227360143,1,1,1.35317793267,268.601102311,1,1,0.240743544651,5,6.0,32,bw,99.7901057947,2019_may_16_1052,005,256,20,5,alvaro,Experiment_EEG_version,20,
Nonliving_Things,../experiment_stimuli/bw_bc_bl/Nonliving_Things/Furniture/bed_16.jpg,Furniture,0,bed,0,56,56,5,270.574745327,nV_V,1,270.57963328,271.857427747,1,1,0.671683944413,272.549672069,3,0,0.190684885602,5,6.5,32,bw,99.7901057947,2019_may_16_1052,005,256,20,5,alvaro,Experiment_EEG_version,20,
Nonliving_Things,../experiment_stimuli/bw_bc_bl/Nonliving_Things/Buildings/mill_3.jpg,Buildings,0,mill,0,57,57,53,274.473215634,V_nV,2,274.479408952,275.72584386,1,2,0.320928798756,276.067314643,1,1,0.140526163974,5,6.5,32,bw,99.7901057947,2019_may_16_1052,005,256,20,5,alvaro,Experiment_EEG_version,20,
Nonliving_Things,../experiment_stimuli/bw_bc_bl/Nonliving_Things/Vehicles/tractor_2.jpg,Vehicles,0,tractor,0,58,58,86,277.940754106,nV_V,1,277.945643261,279.213421747,1,1,0.61155742954,279.845526033,3,0,0.230764608481,5,6.0,32,bw,99.7901057947,2019_may_16_1052,005,256,20,5,alvaro,Experiment_EEG_version,20,
Nonliving_Things,../experiment_stimuli/bw_bc_bl/Nonliving_Things/Vehicles/ship_9.jpg,Vehicles,0,ship,0,59,59,76,281.809165444,nV_V,1,281.815175347,283.06178431,1,1,0.611565914121,283.693932493,2,0,0.21072927129,5,6.5,32,bw,99.7901057947,2019_may_16_1052,005,256,20,5,alvaro,Experiment_EEG_version,20,
Nonliving_Things,../experiment_stimuli/bw_bc_bl/Nonliving_Things/Vehicles/motorbike_13.jpg,Vehicles,0,motorbike,0,60,60,54,285.637491824,nV_V,1,285.642374919,286.880088998,0,2,0.43116617843,287.331801401,1,1,0.110459271702,5,6.5,32,bw,99.7901057947,2019_may_16_1052,005,256,20,5,alvaro,Experiment_EEG_version,20,
Nonliving_Things,../experiment_stimuli/bw_bc_bl/Nonliving_Things/Kitchen_Uten/saucepan_12.jpg,Kitchen_Uten,0,saucepan,0,61,61,71,289.175173896,V_nV,2,289.182436912,290.44785059,1,2,0.661670824629,291.130079944,2,0,0.451205658377,5,6.0,32,bw,99.7901057947,2019_may_16_1052,005,256,20,5,alvaro,Experiment_EEG_version,20,
Nonliving_Things,../experiment_stimuli/bw_bc_bl/Nonliving_Things/Kitchen_Uten/pot_0.jpg,Kitchen_Uten,0,pot,0,62,62,66,293.314174822,V_nV,2,293.318916927,294.576821314,0,1,0.701752822031,295.299126883,1,1,0.361020446173,5,7.5,32,bw,99.7901057947,2019_may_16_1052,005,256,20,5,alvaro,Experiment_EEG_version,20,
Living_Things,../experiment_stimuli/bw_bc_bl/Living_Things/Animals/horse_15.jpg,Animals,0,horse,0,63,63,40,297.393040587,nV_V,2,297.397841135,298.675733931,1,2,0.701764276484,299.398054402,2,0,0.270809260546,5,8.0,32,bw,99.7901057947,2019_may_16_1052,005,256,20,5,alvaro,Experiment_EEG_version,20,
Living_Things,../experiment_stimuli/bw_bc_bl/Living_Things/Birds/raven_19.jpg,Birds,0,raven,0,64,64,67,301.401777691,nV_V,2,301.406592013,302.664409732,1,2,0.220791913103,302.905742467,1,1,0.130335626076,5,6.5,32,bw,99.7901057947,2019_may_16_1052,005,256,20,5,alvaro,Experiment_EEG_version,20,
Living_Things,../experiment_stimuli/bw_bc_bl/Living_Things/Birds/hummingbird_8.jpg,Birds,0,hummingbird,0,65,65,42,304.76907424,V_nV,1,304.773932799,306.071808418,0,2,0.421161716687,306.523562595,1,1,0.0503357453272,5,6.0,32,bw,99.7901057947,2019_may_16_1052,005,256,20,5,alvaro,Experiment_EEG_version,20,
Nonliving_Things,../experiment_stimuli/bw_bc_bl/Nonliving_Things/Furniture/rocking-chair_26.jpg,Furniture,0,rocking-chair,0,66,66,69,308.306762256,V_nV,2,308.311646201,309.619523237,1,2,0.601531779743,310.241610599,3,0,0.130509146024,5,6.0,32,bw,99.7901057947,2019_may_16_1052,005,256,20,5,alvaro,Experiment_EEG_version,20,
Nonliving_Things,../experiment_stimuli/bw_bc_bl/Nonliving_Things/Kitchen_Uten/small-saucepan_5.jpg,Kitchen_Uten,0,small-saucepan,0,67,67,77,312.105031761,nV_V,1,312.109784058,313.397732593,1,1,0.541409298778,313.959701921,3,0,0.130603174679,5,7.0,32,bw,99.7901057947,2019_may_16_1052,005,256,20,5,alvaro,Experiment_EEG_version,20,
Living_Things,../experiment_stimuli/bw_bc_bl/Living_Things/Animals/lynx_14.jpg,Animals,0,lynx,0,68,68,50,315.823118174,V_nV,1,315.829345886,317.105802056,1,1,0.842055898975,317.968389969,3,0,0.140538791777,5,7.5,32,bw,99.7901057947,2019_may_16_1052,005,256,20,5,alvaro,Experiment_EEG_version,20,
Nonliving_Things,../experiment_stimuli/bw_bc_bl/Nonliving_Things/Tools/axe_24.jpg,Tools,0,axe,0,69,69,3,319.841839368,nV_V,1,319.847997306,321.094468643,1,1,0.651647915482,321.766664279,1,1,0.190486456035,5,6.0,32,bw,99.7901057947,2019_may_16_1052,005,256,20,5,alvaro,Experiment_EEG_version,20,
Living_Things,../experiment_stimuli/bw_bc_bl/Living_Things/Marine_creatures/shark_3.jpg,Marine_creatures,0,shark,0,70,70,75,323.690209987,V_nV,1,323.694941208,324.972895372,1,1,0.611559963319,325.615037619,3,0,0.41111764207,5,6.5,32,bw,99.7901057947,2019_may_16_1052,005,256,20,5,alvaro,Experiment_EEG_version,20,
Living_Things,../experiment_stimuli/bw_bc_bl/Living_Things/Animals/armadillo_25.jpg,Animals,0,armadillo,0,71,71,1,327.759082282,nV_V,2,327.763904382,329.011685485,1,2,0.3108993856,329.343120359,1,1,0.120481383288,5,7.5,32,bw,99.7901057947,2019_may_16_1052,005,256,20,5,alvaro,Experiment_EEG_version,20,
Living_Things,../experiment_stimuli/bw_bc_bl/Living_Things/Insects/dragonfly_9.jpg,Insects,0,dragonfly,0,72,72,24,331.19653068,nV_V,2,331.2013811,332.469196938,1,2,1.51354249672,334.003284735,2,0,0.741857773974,5,6.0,32,bw,99.7901057947,2019_may_16_1052,005,256,20,5,alvaro,Experiment_EEG_version,20,
Living_Things,../experiment_stimuli/bw_bc_bl/Living_Things/Marine_creatures/narwhal_7.jpg,Marine_creatures,0,narwhal,0,73,73,55,336.478033101,nV_V,2,336.482818472,337.740660939,1,2,0.441191395745,338.202406815,2,0,0.250766028767,5,6.0,32,bw,99.7901057947,2019_may_16_1052,005,256,20,5,alvaro,Experiment_EEG_version,20,
Living_Things,../experiment_stimuli/bw_bc_bl/Living_Things/Birds/seagull_21.jpg,Birds,0,seagull,0,74,74,74,340.186082601,nV_V,2,340.192314873,341.448715304,1,2,0.491290121921,341.960566211,1,1,0.130507616093,5,6.0,32,bw,99.7901057947,2019_may_16_1052,005,256,20,5,alvaro,Experiment_EEG_version,20,
Nonliving_Things,../experiment_stimuli/bw_bc_bl/Nonliving_Things/Furniture/bookcase_20.jpg,Furniture,0,bookcase,0,75,75,8,343.823983005,V_nV,2,343.82875382,345.106674439,1,2,1.40328234644,346.530508157,3,0,0.200664050994,5,6.0,32,bw,99.7901057947,2019_may_16_1052,005,256,20,5,alvaro,Experiment_EEG_version,20,
Nonliving_Things,../experiment_stimuli/bw_bc_bl/Nonliving_Things/Buildings/palace_21.jpg,Buildings,0,palace,0,76,76,58,348.464065356,nV_V,1,348.468946264,349.716689752,0,2,0.801808757475,350.539061944,1,1,0.260788934305,5,6.5,32,bw,99.7901057947,2019_may_16_1052,005,256,20,5,alvaro,Experiment_EEG_version,20,
Nonliving_Things,../experiment_stimuli/bw_bc_bl/Nonliving_Things/Vehicles/bus_16.jpg,Vehicles,0,bus,0,77,77,9,352.532910111,nV_V,1,352.537751083,353.795557031,0,2,0.591512111598,354.407615382,2,0,0.250785081531,5,7.5,32,bw,99.7901057947,2019_may_16_1052,005,256,20,5,alvaro,Experiment_EEG_version,20,
Living_Things,../experiment_stimuli/bw_bc_bl/Living_Things/Marine_creatures/pomfret_9.jpg,Marine_creatures,0,pomfret,0,78,78,65,356.391304939,nV_V,2,356.396102762,357.643925026,1,2,0.130510089453,357.79498419,1,1,0.11045815493,5,6.0,32,bw,99.7901057947,2019_may_16_1052,005,256,20,5,alvaro,Experiment_EEG_version,20,
Nonliving_Things,../experiment_stimuli/bw_bc_bl/Nonliving_Things/Buildings/factory_25.jpg,Buildings,0,factory,0,79,79,28,359.638358023,V_nV,2,359.64316739,360.901009102,1,2,0.531396822073,361.452956411,3,0,0.150558129419,5,6.0,32,bw,99.7901057947,2019_may_16_1052,005,256,20,5,alvaro,Experiment_EEG_version,20,
Nonliving_Things,../experiment_stimuli/bw_bc_bl/Nonliving_Things/Furniture/table_16.jpg,Furniture,0,table,0,80,80,81,363.336394136,nV_V,1,363.341144069,364.578996747,0,2,0.320923994295,364.920489597,1,1,0.080407901085,5,6.5,32,bw,99.7901057947,2019_may_16_1052,005,256,20,5,alvaro,Experiment_EEG_version,20,
Nonliving_Things,../experiment_stimuli/bw_bc_bl/Nonliving_Things/Furniture/Chest-of-drawers_18.jpg,Furniture,0,Chest-of-drawers,0,81,81,0,366.733785011,nV_V,1,366.738601935,367.986403718,1,1,0.531220587553,368.538177639,1,1,0.160572256777,5,7.5,32,bw,99.7901057947,2019_may_16_1052,005,256,20,5,alvaro,Experiment_EEG_version,20,
Nonliving_Things,../experiment_stimuli/bw_bc_bl/Nonliving_Things/Furniture/chair_20.jpg,Furniture,0,chair,0,82,82,15,370.431821271,V_nV,2,370.436672675,371.714517536,1,2,0.721787490067,372.456858988,1,1,0.0904217124917,5,6.0,32,bw,99.7901057947,2019_may_16_1052,005,256,20,5,alvaro,Experiment_EEG_version,20,
Living_Things,../experiment_stimuli/bw_bc_bl/Living_Things/Insects/ladybird_12.jpg,Insects,0,ladybird,0,83,83,45,374.280185006,V_nV,1,374.284975254,375.572904699,1,1,0.631613698672,376.225064401,3,0,0.0703768604435,5,6.0,32,bw,99.7901057947,2019_may_16_1052,005,256,20,5,alvaro,Experiment_EEG_version,20,
Nonliving_Things,../experiment_stimuli/bw_bc_bl/Nonliving_Things/Vehicles/van_15.jpg,Vehicles,0,van,0,84,84,91,378.028337643,V_nV,2,378.033072399,379.29097968,1,2,0.631616029423,379.943175735,3,0,0.120484582731,5,8.0,32,bw,99.7901057947,2019_may_16_1052,005,256,20,5,alvaro,Experiment_EEG_version,20,
Nonliving_Things,../experiment_stimuli/bw_bc_bl/Nonliving_Things/Furniture/sofa_25.jpg,Furniture,0,sofa,0,85,85,78,381.796531504,nV_V,1,381.801188546,383.0291096,1,1,0.0603828945896,383.110042824,1,1,3.3675605082,5,7.0,32,bw,99.7901057947,2019_may_16_1052,005,256,20,5,alvaro,Experiment_EEG_version,20,
Nonliving_Things,../experiment_stimuli/bw_bc_bl/Nonliving_Things/Furniture/bedside-table_4.jpg,Furniture,0,bedside-table,0,86,86,6,388.210471425,nV_V,1,388.215250364,389.473116909,1,1,1.29303834634,390.786733126,2,0,0.180629022187,5,6.0,32,bw,99.7901057947,2019_may_16_1052,005,256,20,5,alvaro,Experiment_EEG_version,20,
Nonliving_Things,../experiment_stimuli/bw_bc_bl/Nonliving_Things/Musical_Inst/violin_13.jpg,Musical_Inst,0,violin,0,87,87,92,392.700228711,V_nV,2,392.705103652,393.952854572,1,2,0.681713597733,394.655125086,1,1,0.170588519308,5,6.0,32,bw,99.7901057947,2019_may_16_1052,005,256,20,5,alvaro,Experiment_EEG_version,20,
Nonliving_Things,../experiment_stimuli/bw_bc_bl/Nonliving_Things/Furniture/lamp_25.jpg,Furniture,0,lamp,0,88,88,46,396.558627366,V_nV,2,396.567473153,397.851334266,1,2,0.882245849702,398.754150389,2,0,1.15272870928,5,6.5,32,bw,99.7901057947,2019_may_16_1052,005,256,20,5,alvaro,Experiment_EEG_version,20,
Living_Things,../experiment_stimuli/bw_bc_bl/Living_Things/Animals/hippopotamus_6.jpg,Animals,0,hippopotamus,0,89,89,39,401.639667891,nV_V,2,401.644442244,402.922352431,1,2,0.811993367388,403.754916974,2,0,0.190732651856,5,6.0,32,bw,99.7901057947,2019_may_16_1052,005,256,20,5,alvaro,Experiment_EEG_version,20,
Living_Things,../experiment_stimuli/bw_bc_bl/Living_Things/Marine_creatures/crab_15.jpg,Marine_creatures,0,crab,0,90,90,21,405.678451576,V_nV,1,405.683313243,406.941101102,1,1,0.681713229278,407.643359744,1,1,0.18061298877,5,6.0,32,bw,99.7901057947,2019_may_16_1052,005,256,20,5,alvaro,Experiment_EEG_version,20,
Nonliving_Things,../experiment_stimuli/bw_bc_bl/Nonliving_Things/Furniture/lectern_10.jpg,Furniture,0,lectern,0,91,91,47,409.556874693,V_nV,2,409.561590366,410.829547248,1,2,1.96450543276,412.814604082,1,1,0.0703722664621,5,6.5,32,bw,99.7901057947,2019_may_16_1052,005,256,20,5,alvaro,Experiment_EEG_version,20,
Living_Things,../experiment_stimuli/bw_bc_bl/Living_Things/Birds/owl_13.jpg,Birds,0,owl,0,92,92,57,414.617883452,V_nV,1,414.622680222,415.930640155,1,1,0.61156016239,416.562748493,2,0,0.120486808242,5,8.0,32,bw,99.7901057947,2019_may_16_1052,005,256,20,5,alvaro,Experiment_EEG_version,20,
Living_Things,../experiment_stimuli/bw_bc_bl/Living_Things/Marine_creatures/manatee_12.jpg,Marine_creatures,0,manatee,0,93,93,52,418.41613539,V_nV,1,418.421038203,419.708849128,1,1,0.791796953534,420.521200231,1,1,0.210684159538,5,6.5,32,bw,99.7901057947,2019_may_16_1052,005,256,20,5,alvaro,Experiment_EEG_version,20,
Nonliving_Things,../experiment_stimuli/bw_bc_bl/Nonliving_Things/Furniture/filling-cabinet_5.jpg,Furniture,0,filling-cabinet,0,94,94,29,422.464956954,nV_V,1,422.469758825,423.767679748,0,2,0.621579364757,424.409809976,1,1,0.12049068429,5,6.0,32,bw,99.7901057947,2019_may_16_1052,005,256,20,5,alvaro,Experiment_EEG_version,20,
Nonliving_Things,../experiment_stimuli/bw_bc_bl/Nonliving_Things/Musical_Inst/trumpet_19.jpg,Musical_Inst,0,trumpet,0,95,95,88,426.263191121,nV_V,1,426.268148373,427.585971316,1,1,1.38308080123,428.989623571,2,0,0.260818678187,5,6.0,32,bw,99.7901057947,2019_may_16_1052,005,256,20,5,alvaro,Experiment_EEG_version,20,
