category,probe_path,subcategory,fixation_duration,label,trials.thisRepN,trials.thisTrialN,trials.thisN,trials.thisIndex,image_onset_time,response_window,correctAns,probe_onset,discrim_resptime,response.corr,response.keys,response.rt,visible_resptime,visible.keys,visible.corr,visible.rt,probeFrames,jitter2,n_square,experiment_color,frameRate,date,session,image_size,premask_dur,probeFrames,participant,expName,postmask_dur,
Nonliving_Things,../experiment_stimuli/bw_bc_bl/Nonliving_Things/Vehicles/boat_22.jpg,Vehicles,0,boat,0,0,0,7,3.71872317838,V_nV,2,3.74180907675,5.00140357926,1,2,0.571501176222,5.60375640378,2,0,0.401091146516,5,7.5,32,bw,99.7809238193,2019_may_16_1118,008,256,20,5,alvaro,Experiment_EEG_version,20,
Nonliving_Things,../experiment_stimuli/bw_bc_bl/Nonliving_Things/Kitchen_Uten/coking-pot_10.jpg,Kitchen_Uten,0,coking-pot,0,1,1,18,7.73744795891,V_nV,2,7.74219242833,9.00009911996,1,2,0.441191651393,9.46182352246,2,0,0.391080414178,5,6.0,32,bw,99.7809238193,2019_may_16_1118,008,256,20,5,alvaro,Experiment_EEG_version,20,
Nonliving_Things,../experiment_stimuli/bw_bc_bl/Nonliving_Things/Buildings/granary_6.jpg,Buildings,0,granary,0,2,2,35,11.5858165021,nV_V,1,11.5908095809,12.8384424272,1,1,0.761882697698,13.6208627631,2,0,0.491307456396,5,7.0,32,bw,99.7809238193,2019_may_16_1118,008,256,20,5,alvaro,Experiment_EEG_version,20,
Living_Things,../experiment_stimuli/bw_bc_bl/Living_Things/Marine_creatures/sperm-whale_24.jpg,Marine_creatures,0,sperm-whale,0,3,3,80,15.8450744469,V_nV,1,15.8499679252,17.0876769968,1,1,0.320930813323,17.4291546928,1,1,0.391070880461,5,6.0,32,bw,99.7809238193,2019_may_16_1118,008,256,20,5,alvaro,Experiment_EEG_version,20,
Living_Things,../experiment_stimuli/bw_bc_bl/Living_Things/Animals/zebra_25.jpg,Animals,0,zebra,0,4,4,95,19.5531298643,V_nV,1,19.5585764328,20.8157788228,1,1,0.801969371736,21.6383121893,2,0,0.401089665364,5,6.5,32,bw,99.7809238193,2019_may_16_1118,008,256,20,5,alvaro,Experiment_EEG_version,20,
Nonliving_Things,../experiment_stimuli/bw_bc_bl/Nonliving_Things/Furniture/bookcase_5.jpg,Furniture,0,bookcase,0,5,5,8,23.7723059169,V_nV,2,23.7772168425,25.02492556,1,2,0.601540216128,25.6470064103,1,1,0.471246905159,5,7.5,32,bw,99.7809238193,2019_may_16_1118,008,256,20,5,alvaro,Experiment_EEG_version,20,
Nonliving_Things,../experiment_stimuli/bw_bc_bl/Nonliving_Things/Furniture/chair_13.jpg,Furniture,0,chair,0,6,6,15,27.8511667531,nV_V,1,27.8561204189,29.1138191476,1,1,1.68388519599,30.8182603766,1,1,0.401106646517,5,6.0,32,bw,99.7809238193,2019_may_16_1118,008,256,20,5,alvaro,Experiment_EEG_version,20,
Living_Things,../experiment_stimuli/bw_bc_bl/Living_Things/Insects/ladybird_17.jpg,Insects,0,ladybird,0,7,7,45,32.9522599723,nV_V,2,32.9571346313,34.2449883608,1,2,0.942305113771,35.207834417,2,0,0.701751784422,5,8.0,32,bw,99.7809238193,2019_may_16_1118,008,256,20,5,alvaro,Experiment_EEG_version,20,
Living_Things,../experiment_stimuli/bw_bc_bl/Living_Things/Animals/lioness_12.jpg,Animals,0,lioness,0,8,8,48,37.6424682862,nV_V,2,37.647399005,38.9251426156,1,2,0.691734886379,39.6374446213,2,0,0.381068993709,5,7.0,32,bw,99.7809238193,2019_may_16_1118,008,256,20,5,alvaro,Experiment_EEG_version,20,
Nonliving_Things,../experiment_stimuli/bw_bc_bl/Nonliving_Things/Furniture/rocking-chair_3.jpg,Furniture,0,rocking-chair,0,9,9,69,41.7513857711,nV_V,1,41.7564587811,43.0240492403,1,1,0.63172951655,43.6763357332,2,0,0.441175929736,5,6.5,32,bw,99.7809238193,2019_may_16_1118,008,256,20,5,alvaro,Experiment_EEG_version,20,
Living_Things,../experiment_stimuli/bw_bc_bl/Living_Things/Animals/tapir_5.jpg,Animals,0,tapir,0,10,10,82,45.850292234,V_nV,1,45.8551435779,47.1129402787,1,1,0.361023746897,47.4945232951,1,1,0.381045557908,5,7.0,32,bw,99.7809238193,2019_may_16_1118,008,256,20,5,alvaro,Experiment_EEG_version,20,
Living_Things,../experiment_stimuli/bw_bc_bl/Living_Things/Birds/goose_26.jpg,Birds,0,goose,0,11,11,34,49.6084632834,V_nV,1,49.6145095652,50.9011762736,1,1,1.07255590253,51.9942937914,1,1,0.431156772538,5,7.0,32,bw,99.7809238193,2019_may_16_1118,008,256,20,5,alvaro,Experiment_EEG_version,20,
Nonliving_Things,../experiment_stimuli/bw_bc_bl/Nonliving_Things/Kitchen_Uten/fondue_7.jpg,Kitchen_Uten,0,fondue,0,12,12,30,54.1583591334,nV_V,1,54.1632189431,55.4811333283,1,1,1.25294916111,56.7546901831,1,1,2.01459885831,5,6.0,32,bw,99.7809238193,2019_may_16_1118,008,256,20,5,alvaro,Experiment_EEG_version,20,
Nonliving_Things,../experiment_stimuli/bw_bc_bl/Nonliving_Things/Musical_Inst/violin_19.jpg,Musical_Inst,0,violin,0,13,13,92,60.5021459084,nV_V,1,60.5071839601,61.834940945,1,1,0.591512393323,62.4470025288,3,0,0.62157141394,5,6.0,32,bw,99.7809238193,2019_may_16_1118,008,256,20,5,alvaro,Experiment_EEG_version,20,
Nonliving_Things,../experiment_stimuli/bw_bc_bl/Nonliving_Things/Furniture/Chest-of-drawers_16.jpg,Furniture,0,Chest-of-drawers,0,14,14,0,64.8014879709,nV_V,1,64.8062908304,66.1142425347,1,1,0.641624461161,66.776471186,2,0,0.591526020668,5,7.5,32,bw,99.7809238193,2019_may_16_1118,008,256,20,5,alvaro,Experiment_EEG_version,20,
Nonliving_Things,../experiment_stimuli/bw_bc_bl/Nonliving_Things/Vehicles/plane_19.jpg,Vehicles,0,plane,0,15,15,64,69.1008356232,nV_V,1,69.1057870029,70.4035661201,1,1,0.741845556069,71.1659616039,3,0,0.401087289443,5,6.0,32,bw,99.7809238193,2019_may_16_1118,008,256,20,5,alvaro,Experiment_EEG_version,20,
Living_Things,../experiment_stimuli/bw_bc_bl/Living_Things/Marine_creatures/whale_8.jpg,Marine_creatures,0,whale,0,16,16,94,73.2999666282,V_nV,1,73.3055966713,74.582653822,0,2,0.441022793064,75.0442411398,1,1,0.220746285748,5,6.5,32,bw,99.7809238193,2019_may_16_1118,008,256,20,5,alvaro,Experiment_EEG_version,20,
Nonliving_Things,../experiment_stimuli/bw_bc_bl/Nonliving_Things/Furniture/sofa_16.jpg,Furniture,0,sofa,0,17,17,78,76.9980101213,nV_V,1,77.0028424842,78.2907210176,1,1,1.93443997263,80.2457006886,2,0,0.371046599699,5,6.0,32,bw,99.7809238193,2019_may_16_1118,008,256,20,5,alvaro,Experiment_EEG_version,20,
Nonliving_Things,../experiment_stimuli/bw_bc_bl/Nonliving_Things/Buildings/palace_16.jpg,Buildings,0,palace,0,18,18,58,82.3496359966,V_nV,2,82.3546139138,83.6323221644,1,2,0.60153959156,84.2544167549,2,0,0.371028686292,5,6.0,32,bw,99.7809238193,2019_may_16_1118,008,256,20,5,alvaro,Experiment_EEG_version,20,
Living_Things,../experiment_stimuli/bw_bc_bl/Living_Things/Animals/cat_18.jpg,Animals,0,cat,0,19,19,13,86.3583518453,V_nV,1,86.3632120384,87.6310189081,0,2,0.481270517455,88.1328429357,2,0,0.320913527976,5,7.5,32,bw,99.7809238193,2019_may_16_1118,008,256,20,5,alvaro,Experiment_EEG_version,20,
Nonliving_Things,../experiment_stimuli/bw_bc_bl/Nonliving_Things/Kitchen_Uten/pot_25.jpg,Kitchen_Uten,0,pot,0,20,20,66,90.1866751343,V_nV,2,90.1915959434,91.4493243183,1,2,0.631613661069,92.10148361,2,0,0.371022509993,5,6.5,32,bw,99.7809238193,2019_may_16_1118,008,256,20,5,alvaro,Experiment_EEG_version,20,
Living_Things,../experiment_stimuli/bw_bc_bl/Living_Things/Birds/goldfinch_11.jpg,Birds,0,goldfinch,0,21,21,33,94.2054165236,V_nV,1,94.2118229467,95.4580312308,1,1,0.0804002319928,95.5589922512,1,1,0.411114931689,5,6.0,32,bw,99.7809238193,2019_may_16_1118,008,256,20,5,alvaro,Experiment_EEG_version,20,
Living_Things,../experiment_stimuli/bw_bc_bl/Living_Things/Animals/lynx_5.jpg,Animals,0,lynx,0,22,22,50,97.7030093236,nV_V,2,97.708012515,98.9857096827,1,2,0.832027550205,99.8382874989,2,0,0.41111185262,5,6.0,32,bw,99.7809238193,2019_may_16_1118,008,256,20,5,alvaro,Experiment_EEG_version,20,
Nonliving_Things,../experiment_stimuli/bw_bc_bl/Nonliving_Things/Tools/hammer_21.jpg,Tools,0,hammer,0,23,23,37,101.982321064,V_nV,2,101.988037779,103.254980292,1,2,0.561449233443,103.83697819,2,0,0.340974962804,5,7.0,32,bw,99.7809238193,2019_may_16_1118,008,256,20,5,alvaro,Experiment_EEG_version,20,
Living_Things,../experiment_stimuli/bw_bc_bl/Living_Things/Animals/elephant_16.jpg,Animals,0,elephant,0,24,24,27,105.910852373,nV_V,2,105.915849571,107.173506162,0,1,0.0603615154978,107.254428841,1,1,0.33095615101,5,6.5,32,bw,99.7809238193,2019_may_16_1118,008,256,20,5,alvaro,Experiment_EEG_version,20,
Nonliving_Things,../experiment_stimuli/bw_bc_bl/Nonliving_Things/Vehicles/ship_0.jpg,Vehicles,0,ship,0,25,25,76,109.31826228,nV_V,1,109.323176206,110.590944764,1,1,0.992396934191,111.603899456,3,0,0.300871848944,5,7.5,32,bw,99.7809238193,2019_may_16_1118,008,256,20,5,alvaro,Experiment_EEG_version,20,
Nonliving_Things,../experiment_stimuli/bw_bc_bl/Nonliving_Things/Furniture/table_22.jpg,Furniture,0,table,0,26,26,81,113.637652882,nV_V,1,113.644282065,114.880251955,0,2,0.310904539772,115.221729102,1,1,0.371022419655,5,6.0,32,bw,99.7809238193,2019_may_16_1118,008,256,20,5,alvaro,Experiment_EEG_version,20,
Nonliving_Things,../experiment_stimuli/bw_bc_bl/Nonliving_Things/Musical_Inst/piano__0.jpg,Musical_Inst,0,piano,0,27,27,62,117.325669809,nV_V,1,117.330577479,118.57829817,0,2,0.361006946536,118.959847758,1,1,0.23072539852,5,6.0,32,bw,99.7809238193,2019_may_16_1118,008,256,20,5,alvaro,Experiment_EEG_version,20,
Nonliving_Things,../experiment_stimuli/bw_bc_bl/Nonliving_Things/Furniture/couch_20.jpg,Furniture,0,couch,0,28,28,19,120.923492527,nV_V,1,120.928299582,122.19616109,1,1,0.511336755706,122.728060273,3,0,0.351005461765,5,6.0,32,bw,99.7809238193,2019_may_16_1118,008,256,20,5,alvaro,Experiment_EEG_version,20,
Living_Things,../experiment_stimuli/bw_bc_bl/Living_Things/Birds/kiwi_26.jpg,Birds,0,kiwi,0,29,29,44,124.811955492,nV_V,2,124.816816178,126.05454314,1,2,0.381064692978,126.456156644,1,1,0.250763566582,5,8.0,32,bw,99.7809238193,2019_may_16_1118,008,256,20,5,alvaro,Experiment_EEG_version,20,
Living_Things,../experiment_stimuli/bw_bc_bl/Living_Things/Insects/scorpion_19.jpg,Insects,0,scorpion,0,30,30,73,128.439821521,V_nV,1,128.444822686,129.692453325,0,2,1.10261911864,130.81563192,1,1,0.280827376642,5,6.5,32,bw,99.7809238193,2019_may_16_1118,008,256,20,5,alvaro,Experiment_EEG_version,20,
Living_Things,../experiment_stimuli/bw_bc_bl/Living_Things/Animals/horse_3.jpg,Animals,0,horse,0,31,31,40,132.829367757,V_nV,1,132.834306002,134.112061124,1,1,0.791954278131,134.924574386,1,1,0.280831271317,5,6.0,32,bw,99.7809238193,2019_may_16_1118,008,256,20,5,alvaro,Experiment_EEG_version,20,
Nonliving_Things,../experiment_stimuli/bw_bc_bl/Nonliving_Things/Vehicles/train_1.jpg,Vehicles,0,train,0,32,32,87,136.938306291,nV_V,1,136.943231287,138.251059092,1,1,0.641612480278,138.913239258,1,1,0.26078900951,5,8.0,32,bw,99.7809238193,2019_may_16_1118,008,256,20,5,alvaro,Experiment_EEG_version,20,
Nonliving_Things,../experiment_stimuli/bw_bc_bl/Nonliving_Things/Musical_Inst/drum_12.jpg,Musical_Inst,0,drum,0,33,33,25,140.9069323,V_nV,2,140.911808978,142.229708017,1,2,0.79193990631,143.042203246,1,1,0.290856511216,5,6.0,32,bw,99.7809238193,2019_may_16_1118,008,256,20,5,alvaro,Experiment_EEG_version,20,
Living_Things,../experiment_stimuli/bw_bc_bl/Living_Things/Birds/ostrich_15.jpg,Birds,0,ostrich,0,34,34,56,145.065971706,V_nV,1,145.071947518,146.408791956,1,1,2.65601164999,149.085396777,3,0,0.290848650155,5,7.0,32,bw,99.7809238193,2019_may_16_1118,008,256,20,5,alvaro,Experiment_EEG_version,20,
Nonliving_Things,../experiment_stimuli/bw_bc_bl/Nonliving_Things/Furniture/bed_15.jpg,Furniture,0,bed,0,35,35,5,151.109103095,nV_V,1,151.114007577,152.421864418,1,1,0.801976127434,153.244420837,2,0,0.541410212521,5,7.5,32,bw,99.7809238193,2019_may_16_1118,008,256,20,5,alvaro,Experiment_EEG_version,20,
Nonliving_Things,../experiment_stimuli/bw_bc_bl/Nonliving_Things/Kitchen_Uten/cup_14.jpg,Kitchen_Uten,0,cup,0,36,36,22,155.518692507,V_nV,2,155.523641398,156.821423722,1,2,2.58584727894,159.427827511,3,0,0.371047287481,5,6.0,32,bw,99.7809238193,2019_may_16_1118,008,256,20,5,alvaro,Experiment_EEG_version,20,
Nonliving_Things,../experiment_stimuli/bw_bc_bl/Nonliving_Things/Musical_Inst/tuba_18.jpg,Musical_Inst,0,tuba,0,37,37,89,161.531763729,V_nV,2,161.537689693,162.804433585,1,2,0.882143712137,163.707129029,3,0,0.54139350215,5,6.0,32,bw,99.7809238193,2019_may_16_1118,008,256,20,5,alvaro,Experiment_EEG_version,20,
Nonliving_Things,../experiment_stimuli/bw_bc_bl/Nonliving_Things/Furniture/lectern_15.jpg,Furniture,0,lectern,0,38,38,47,165.981435631,V_nV,2,165.987387591,167.234064827,1,2,0.781922000693,168.036529804,2,0,0.371024231659,5,6.0,32,bw,99.7809238193,2019_may_16_1118,008,256,20,5,alvaro,Experiment_EEG_version,20,
Living_Things,../experiment_stimuli/bw_bc_bl/Living_Things/Marine_creatures/dolphin_14.jpg,Marine_creatures,0,dolphin,0,39,39,23,170.140478334,nV_V,2,170.145275276,171.383081647,0,1,0.661677140277,172.065316305,1,1,0.25077062659,5,7.5,32,bw,99.7809238193,2019_may_16_1118,008,256,20,5,alvaro,Experiment_EEG_version,20,
Living_Things,../experiment_stimuli/bw_bc_bl/Living_Things/Animals/turtle_7.jpg,Animals,0,turtle,0,40,40,90,174.048975576,nV_V,2,174.053909919,175.301598723,1,2,0.451208842802,175.773373286,1,1,0.250759326038,5,6.0,32,bw,99.7809238193,2019_may_16_1118,008,256,20,5,alvaro,Experiment_EEG_version,20,
Living_Things,../experiment_stimuli/bw_bc_bl/Living_Things/Marine_creatures/killer-whale_0.jpg,Marine_creatures,0,killer-whale,0,41,41,43,177.757057046,nV_V,2,177.762899466,179.03972724,1,2,0.190655107959,179.250937129,1,1,0.190685859066,5,7.5,32,bw,99.7809238193,2019_may_16_1118,008,256,20,5,alvaro,Experiment_EEG_version,20,
Living_Things,../experiment_stimuli/bw_bc_bl/Living_Things/Birds/sparrow_24.jpg,Birds,0,sparrow,0,42,42,79,181.174464893,nV_V,2,181.180516588,182.477200815,1,2,0.5714778041,183.069244306,2,0,0.290851473692,5,6.0,32,bw,99.7809238193,2019_may_16_1118,008,256,20,5,alvaro,Experiment_EEG_version,20,
Nonliving_Things,../experiment_stimuli/bw_bc_bl/Nonliving_Things/Vehicles/car_26.jpg,Vehicles,0,car,0,43,43,11,185.092992297,nV_V,1,185.097878681,186.385702245,1,1,0.471248754766,186.877492187,2,0,0.330939831794,5,6.0,32,bw,99.7809238193,2019_may_16_1118,008,256,20,5,alvaro,Experiment_EEG_version,20,
Living_Things,../experiment_stimuli/bw_bc_bl/Living_Things/Marine_creatures/pomfret_10.jpg,Marine_creatures,0,pomfret,0,44,44,65,188.941349472,V_nV,1,188.946198751,190.224048835,0,2,0.561443248531,190.806038124,2,0,0.270835542236,5,7.0,32,bw,99.7809238193,2019_may_16_1118,008,256,20,5,alvaro,Experiment_EEG_version,20,
Nonliving_Things,../experiment_stimuli/bw_bc_bl/Nonliving_Things/Tools/axe_15.jpg,Tools,0,axe,0,45,45,3,192.809760292,V_nV,2,192.814699541,194.082425126,1,2,0.852074353374,194.955056053,2,0,0.250764134456,5,8.0,32,bw,99.7809238193,2019_may_16_1118,008,256,20,5,alvaro,Experiment_EEG_version,20,
Nonliving_Things,../experiment_stimuli/bw_bc_bl/Nonliving_Things/Furniture/armchair_13.jpg,Furniture,0,armchair,0,46,46,2,196.938739129,nV_V,1,196.943544308,198.201393143,1,1,0.591515870532,198.813437852,3,0,0.250780280679,5,8.0,32,bw,99.7809238193,2019_may_16_1118,008,256,20,5,alvaro,Experiment_EEG_version,20,
Living_Things,../experiment_stimuli/bw_bc_bl/Living_Things/Animals/rhino_4.jpg,Animals,0,rhino,0,47,47,68,200.797119709,V_nV,1,200.80208045,202.039726124,0,2,0.631614356302,202.691890818,1,1,0.972335661179,5,6.0,32,bw,99.7809238193,2019_may_16_1118,008,256,20,5,alvaro,Experiment_EEG_version,20,
Nonliving_Things,../experiment_stimuli/bw_bc_bl/Nonliving_Things/Buildings/castle_26.jpg,Buildings,0,castle,0,48,48,12,205.397131345,V_nV,2,205.404324565,206.649755093,1,2,0.661664535408,207.331972925,1,1,2.76623687556,5,6.5,32,bw,99.7809238193,2019_may_16_1118,008,256,20,5,alvaro,Experiment_EEG_version,20,
Living_Things,../experiment_stimuli/bw_bc_bl/Living_Things/Birds/penguin_11.jpg,Birds,0,penguin,0,49,49,61,211.831111268,nV_V,2,211.836207811,213.093759704,0,1,0.401236881386,213.515546641,1,1,1.01242372964,5,6.0,32,bw,99.7809238193,2019_may_16_1118,008,256,20,5,alvaro,Experiment_EEG_version,20,
Living_Things,../experiment_stimuli/bw_bc_bl/Living_Things/Insects/dragonfly_13.jpg,Insects,0,dragonfly,0,50,50,24,216.260740799,V_nV,1,216.265705829,217.5434292,1,1,1.56362133985,219.127605486,1,1,0.671678579994,5,6.5,32,bw,99.7809238193,2019_may_16_1118,008,256,20,5,alvaro,Experiment_EEG_version,20,
Nonliving_Things,../experiment_stimuli/bw_bc_bl/Nonliving_Things/Kitchen_Uten/saucepan_16.jpg,Kitchen_Uten,0,saucepan,0,51,51,71,221.532205078,V_nV,2,221.537005295,222.844952582,1,2,0.701751261717,223.567276001,3,0,0.280824034358,5,7.0,32,bw,99.7809238193,2019_may_16_1118,008,256,20,5,alvaro,Experiment_EEG_version,20,
Nonliving_Things,../experiment_stimuli/bw_bc_bl/Nonliving_Things/Vehicles/motorbike_3.jpg,Vehicles,0,motorbike,0,52,52,54,225.580999871,V_nV,2,225.58611252,226.873710475,1,2,0.501315944246,227.395598339,3,0,0.241291476763,5,6.5,32,bw,99.7809238193,2019_may_16_1118,008,256,20,5,alvaro,Experiment_EEG_version,20,
Living_Things,../experiment_stimuli/bw_bc_bl/Living_Things/Birds/rooster_26.jpg,Birds,0,rooster,0,53,53,70,229.369256532,nV_V,2,229.374233234,230.63188375,0,1,0.160569561413,230.812998028,1,1,0.230712575489,5,6.0,32,bw,99.7809238193,2019_may_16_1118,008,256,20,5,alvaro,Experiment_EEG_version,20,
Nonliving_Things,../experiment_stimuli/bw_bc_bl/Nonliving_Things/Vehicles/van_25.jpg,Vehicles,0,van,0,54,54,91,232.776648447,nV_V,1,232.781499313,234.069363343,1,1,0.581492093275,234.671384635,3,0,0.300871544285,5,6.0,32,bw,99.7809238193,2019_may_16_1118,008,256,20,5,alvaro,Experiment_EEG_version,20,
Nonliving_Things,../experiment_stimuli/bw_bc_bl/Nonliving_Things/Buildings/factory_4.jpg,Buildings,0,factory,0,55,55,28,236.705188519,V_nV,2,236.710058735,237.967832154,1,2,0.50131379778,238.489705033,3,0,0.210675302194,5,6.0,32,bw,99.7809238193,2019_may_16_1118,008,256,20,5,alvaro,Experiment_EEG_version,20,
Living_Things,../experiment_stimuli/bw_bc_bl/Living_Things/Marine_creatures/shark_1.jpg,Marine_creatures,0,shark,0,56,56,75,240.433296532,nV_V,2,240.439400877,241.675890609,1,2,0.511341327336,242.207800416,1,1,0.260781896883,5,8.0,32,bw,99.7809238193,2019_may_16_1118,008,256,20,5,alvaro,Experiment_EEG_version,20,
Living_Things,../experiment_stimuli/bw_bc_bl/Living_Things/Birds/raven_2.jpg,Birds,0,raven,0,57,57,67,244.201476356,nV_V,2,244.208855148,245.46413113,1,2,0.24074811209,245.725423399,1,1,0.200501797721,5,7.0,32,bw,99.7809238193,2019_may_16_1118,008,256,20,5,alvaro,Experiment_EEG_version,20,
Living_Things,../experiment_stimuli/bw_bc_bl/Living_Things/Birds/owl_18.jpg,Birds,0,owl,0,58,58,57,247.658995734,nV_V,2,247.663862517,248.931664571,0,1,0.210681106662,249.16292035,1,1,4.09913545568,5,6.0,32,bw,99.7809238193,2019_may_16_1118,008,256,20,5,alvaro,Experiment_EEG_version,20,
Nonliving_Things,../experiment_stimuli/bw_bc_bl/Nonliving_Things/Furniture/lamp_5.jpg,Furniture,0,lamp,0,59,59,46,254.994944676,V_nV,2,255.000955108,256.297676067,1,2,1.28304424137,257.601278484,2,0,3.17713043501,5,7.0,32,bw,99.7809238193,2019_may_16_1118,008,256,20,5,alvaro,Experiment_EEG_version,20,
Living_Things,../experiment_stimuli/bw_bc_bl/Living_Things/Animals/giraffe_12.jpg,Animals,0,giraffe,0,60,60,32,262.511300399,V_nV,1,262.516290883,263.793975638,1,1,0.611558342935,264.426079773,3,0,0.240743833943,5,7.0,32,bw,99.7809238193,2019_may_16_1118,008,256,20,5,alvaro,Experiment_EEG_version,20,
Living_Things,../experiment_stimuli/bw_bc_bl/Living_Things/Animals/armadillo_18.jpg,Animals,0,armadillo,0,61,61,1,266.399742214,V_nV,1,266.404655794,267.652379966,1,1,1.34314753488,269.016063387,1,1,0.330937523628,5,6.0,32,bw,99.7809238193,2019_may_16_1118,008,256,20,5,alvaro,Experiment_EEG_version,20,
Living_Things,../experiment_stimuli/bw_bc_bl/Living_Things/Marine_creatures/lobster_5.jpg,Marine_creatures,0,lobster,0,62,62,49,271.079904435,V_nV,1,271.084795617,272.352586742,1,1,0.591507303179,272.974659998,3,0,0.270812358591,5,6.0,32,bw,99.7809238193,2019_may_16_1118,008,256,20,5,alvaro,Experiment_EEG_version,20,
Nonliving_Things,../experiment_stimuli/bw_bc_bl/Nonliving_Things/Furniture/filling-cabinet_10.jpg,Furniture,0,filling-cabinet,0,63,63,29,274.978403926,V_nV,2,274.983263394,276.220986063,0,1,0.6315962628,276.873137568,3,0,0.37102547579,5,6.0,32,bw,99.7809238193,2019_may_16_1118,008,256,20,5,alvaro,Experiment_EEG_version,20,
Nonliving_Things,../experiment_stimuli/bw_bc_bl/Nonliving_Things/Kitchen_Uten/teapot_18.jpg,Kitchen_Uten,0,teapot,0,64,64,83,278.977107876,nV_V,1,278.983288468,280.219678352,0,2,0.98236579576,281.232631875,1,1,0.250764043885,5,6.5,32,bw,99.7809238193,2019_may_16_1118,008,256,20,5,alvaro,Experiment_EEG_version,20,
Living_Things,../experiment_stimuli/bw_bc_bl/Living_Things/Animals/cow_21.jpg,Animals,0,cow,0,65,65,20,283.216292823,nV_V,2,283.222443148,284.468918376,1,2,0.721792621305,285.221302551,1,1,0.250614298042,5,6.5,32,bw,99.7809238193,2019_may_16_1118,008,256,20,5,alvaro,Experiment_EEG_version,20,
Nonliving_Things,../experiment_stimuli/bw_bc_bl/Nonliving_Things/Furniture/bedside-table_18.jpg,Furniture,0,bedside-table,0,66,66,6,287.204959669,V_nV,2,287.209883102,288.467611217,1,2,0.0804077317007,288.568565907,1,1,0.160571884364,5,7.5,32,bw,99.7809238193,2019_may_16_1118,008,256,20,5,alvaro,Experiment_EEG_version,20,
Living_Things,../experiment_stimuli/bw_bc_bl/Living_Things/Insects/butterfly_11.jpg,Insects,0,butterfly,0,67,67,10,290.462051838,nV_V,2,290.466881611,291.744737577,1,2,0.561445609783,292.326737964,3,0,0.190636660787,5,6.5,32,bw,99.7809238193,2019_may_16_1118,008,256,20,5,alvaro,Experiment_EEG_version,20,
Living_Things,../experiment_stimuli/bw_bc_bl/Living_Things/Birds/hen_24.jpg,Birds,0,hen,0,68,68,38,294.250288085,nV_V,2,294.255126887,295.522951561,1,2,0.771929899696,296.315434426,3,0,0.320920964237,5,6.0,32,bw,99.7809238193,2019_may_16_1118,008,256,20,5,alvaro,Experiment_EEG_version,20,
Nonliving_Things,../experiment_stimuli/bw_bc_bl/Nonliving_Things/Buildings/mill_19.jpg,Buildings,0,mill,0,69,69,53,298.369230621,V_nV,2,298.374056537,299.601817698,1,2,0.601531817578,300.223911954,1,1,0.180659627193,5,6.5,32,bw,99.7809238193,2019_may_16_1118,008,256,20,5,alvaro,Experiment_EEG_version,20,
Nonliving_Things,../experiment_stimuli/bw_bc_bl/Nonliving_Things/Musical_Inst/saxophone_16.jpg,Musical_Inst,0,saxophone,0,70,70,72,302.137421347,nV_V,1,302.142344235,303.390051272,1,1,0.170603902661,303.581215399,1,1,0.180611436022,5,7.5,32,bw,99.7809238193,2019_may_16_1118,008,256,20,5,alvaro,Experiment_EEG_version,20,
Nonliving_Things,../experiment_stimuli/bw_bc_bl/Nonliving_Things/Furniture/wardrobe_26.jpg,Furniture,0,wardrobe,0,71,71,93,305.494739344,V_nV,2,305.499476671,306.767390667,1,2,0.511342172977,307.299307162,3,0,0.230717019062,5,6.0,32,bw,99.7809238193,2019_may_16_1118,008,256,20,5,alvaro,Experiment_EEG_version,20,
Living_Things,../experiment_stimuli/bw_bc_bl/Living_Things/Animals/hippopotamus_25.jpg,Animals,0,hippopotamus,0,72,72,39,309.262912209,V_nV,1,309.267778842,310.515538375,1,1,0.621577729587,311.157663367,1,1,0.7017467845,5,6.5,32,bw,99.7809238193,2019_may_16_1118,008,256,20,5,alvaro,Experiment_EEG_version,20,
Living_Things,../experiment_stimuli/bw_bc_bl/Living_Things/Birds/pelican_22.jpg,Birds,0,pelican,0,73,73,60,313.592333513,nV_V,2,313.597174309,314.875015832,1,2,0.601534306421,315.49709481,1,1,0.300877529546,5,7.0,32,bw,99.7809238193,2019_may_16_1118,008,256,20,5,alvaro,Experiment_EEG_version,20,
Living_Things,../experiment_stimuli/bw_bc_bl/Living_Things/Birds/pigeon_9.jpg,Birds,0,pigeon,0,74,74,63,317.530892863,V_nV,1,317.535849359,318.823600146,1,1,0.671687977971,319.515846864,1,1,0.310895269387,5,8.0,32,bw,99.7809238193,2019_may_16_1118,008,256,20,5,alvaro,Experiment_EEG_version,20,
Living_Things,../experiment_stimuli/bw_bc_bl/Living_Things/Birds/toucan_5.jpg,Birds,0,toucan,0,75,75,85,321.559644304,nV_V,2,321.564693416,322.872403127,1,2,0.391073872917,323.284030804,1,1,0.210680828313,5,7.0,32,bw,99.7809238193,2019_may_16_1118,008,256,20,5,alvaro,Experiment_EEG_version,20,
Nonliving_Things,../experiment_stimuli/bw_bc_bl/Nonliving_Things/Musical_Inst/trumpet_23.jpg,Musical_Inst,0,trumpet,0,76,76,88,325.227621363,V_nV,2,325.232555698,326.560421527,0,1,0.581334358547,327.162306847,3,0,0.30088699155,5,8.0,32,bw,99.7809238193,2019_may_16_1118,008,256,20,5,alvaro,Experiment_EEG_version,20,
Living_Things,../experiment_stimuli/bw_bc_bl/Living_Things/Marine_creatures/manatee_23.jpg,Marine_creatures,0,manatee,0,77,77,52,329.196243249,V_nV,1,329.200967399,330.498979828,1,1,0.571492879069,331.091022996,3,0,0.250758363632,5,6.0,32,bw,99.7809238193,2019_may_16_1118,008,256,20,5,alvaro,Experiment_EEG_version,20,
Nonliving_Things,../experiment_stimuli/bw_bc_bl/Nonliving_Things/Vehicles/bus_15.jpg,Vehicles,0,bus,0,78,78,9,333.074683128,nV_V,1,333.079665305,334.34734842,1,1,0.651641772827,335.019565966,3,0,0.290850729332,5,6.0,32,bw,99.7809238193,2019_may_16_1118,008,256,20,5,alvaro,Experiment_EEG_version,20,
Living_Things,../experiment_stimuli/bw_bc_bl/Living_Things/Birds/barn-owl_5.jpg,Birds,0,barn-owl,0,79,79,4,337.043303261,V_nV,1,337.048151538,338.295930743,1,1,0.621575891157,338.938061265,1,1,0.230744206579,5,6.0,32,bw,99.7809238193,2019_may_16_1118,008,256,20,5,alvaro,Experiment_EEG_version,20,
Nonliving_Things,../experiment_stimuli/bw_bc_bl/Nonliving_Things/Kitchen_Uten/frying-pan_19.jpg,Kitchen_Uten,0,frying-pan,0,80,80,31,340.901691387,nV_V,1,340.906470878,342.164342958,1,1,0.88214427256,343.067043838,1,1,0.431156667299,5,6.5,32,bw,99.7809238193,2019_may_16_1118,008,256,20,5,alvaro,Experiment_EEG_version,20,
Living_Things,../experiment_stimuli/bw_bc_bl/Living_Things/Birds/magpie_10.jpg,Birds,0,magpie,0,81,81,51,345.231104289,V_nV,1,345.235995997,346.513796002,1,1,0.541404960561,347.075757593,1,1,0.280844549299,5,7.5,32,bw,99.7809238193,2019_may_16_1118,008,256,20,5,alvaro,Experiment_EEG_version,20,
Living_Things,../experiment_stimuli/bw_bc_bl/Living_Things/Animals/tiger_8.jpg,Animals,0,tiger,0,82,82,84,349.089522561,V_nV,1,349.094369145,350.402246603,1,1,0.421141419793,350.843940457,1,1,0.250777348294,5,7.0,32,bw,99.7809238193,2019_may_16_1118,008,256,20,5,alvaro,Experiment_EEG_version,20,
Living_Things,../experiment_stimuli/bw_bc_bl/Living_Things/Marine_creatures/narwhal_23.jpg,Marine_creatures,0,narwhal,0,83,83,55,352.827616665,nV_V,2,352.832700122,354.150403202,1,2,0.581487830146,354.752435764,1,1,0.230724120629,5,6.5,32,bw,99.7809238193,2019_may_16_1118,008,256,20,5,alvaro,Experiment_EEG_version,20,
Living_Things,../experiment_stimuli/bw_bc_bl/Living_Things/Birds/hummingbird_23.jpg,Birds,0,hummingbird,0,84,84,42,356.716068111,V_nV,1,356.720913128,358.068917827,1,1,0.441179290647,358.530634722,1,1,0.25075722835,5,6.5,32,bw,99.7809238193,2019_may_16_1118,008,256,20,5,alvaro,Experiment_EEG_version,20,
Nonliving_Things,../experiment_stimuli/bw_bc_bl/Nonliving_Things/Buildings/house_12.jpg,Buildings,0,house,0,85,85,41,360.514331846,V_nV,2,360.519069793,361.887214869,1,2,0.781928166049,362.689730639,3,0,0.431172622018,5,7.5,32,bw,99.7809238193,2019_may_16_1118,008,256,20,5,alvaro,Experiment_EEG_version,20,
Nonliving_Things,../experiment_stimuli/bw_bc_bl/Nonliving_Things/Buildings/cathedral_2.jpg,Buildings,0,cathedral,0,86,86,14,364.853760782,V_nV,2,364.858550044,366.196594693,1,2,0.551431756816,366.76857955,3,0,0.511344793136,5,6.0,32,bw,99.7809238193,2019_may_16_1118,008,256,20,5,alvaro,Experiment_EEG_version,20,
Nonliving_Things,../experiment_stimuli/bw_bc_bl/Nonliving_Things/Vehicles/tractor_8.jpg,Vehicles,0,tractor,0,87,87,86,369.012807056,V_nV,2,369.017643554,370.32555953,1,2,2.41549240646,372.761618687,3,0,0.621570560383,5,6.0,32,bw,99.7809238193,2019_may_16_1118,008,256,20,5,alvaro,Experiment_EEG_version,20,
Living_Things,../experiment_stimuli/bw_bc_bl/Living_Things/Animals/cheetah_25.jpg,Animals,0,cheetah,0,88,88,16,375.116069663,nV_V,2,375.120919928,376.39876497,1,2,0.561444985447,376.980762488,1,1,0.220699857804,5,6.5,32,bw,99.7809238193,2019_may_16_1118,008,256,20,5,alvaro,Experiment_EEG_version,20,
Nonliving_Things,../experiment_stimuli/bw_bc_bl/Nonliving_Things/Musical_Inst/guitar_0.jpg,Musical_Inst,0,guitar,0,89,89,36,378.934370713,nV_V,1,378.939175226,380.247130818,1,1,0.681708623888,380.949403429,2,0,0.330945677473,5,6.5,32,bw,99.7809238193,2019_may_16_1118,008,256,20,5,alvaro,Experiment_EEG_version,20,
Living_Things,../experiment_stimuli/bw_bc_bl/Living_Things/Birds/duck_12.jpg,Birds,0,duck,0,90,90,26,383.013233966,V_nV,1,383.0180689,384.315975508,1,1,0.771901843604,385.108441324,1,1,0.250764164142,5,6.5,32,bw,99.7809238193,2019_may_16_1118,008,256,20,5,alvaro,Experiment_EEG_version,20,
Nonliving_Things,../experiment_stimuli/bw_bc_bl/Nonliving_Things/Kitchen_Uten/small-saucepan_23.jpg,Kitchen_Uten,0,small-saucepan,0,91,91,77,387.09212025,V_nV,2,387.096924962,388.404864216,1,2,0.541404178599,388.966813871,1,1,0.260783047182,5,6.5,32,bw,99.7809238193,2019_may_16_1118,008,256,20,5,alvaro,Experiment_EEG_version,20,
Living_Things,../experiment_stimuli/bw_bc_bl/Living_Things/Birds/partridge_16.jpg,Birds,0,partridge,0,92,92,59,390.960519668,nV_V,2,390.96534461,392.283295626,1,2,0.551424820907,392.85528234,1,1,0.230737763224,5,6.0,32,bw,99.7809238193,2019_may_16_1118,008,256,20,5,alvaro,Experiment_EEG_version,20,
Living_Things,../experiment_stimuli/bw_bc_bl/Living_Things/Marine_creatures/crab_21.jpg,Marine_creatures,0,crab,0,93,93,21,394.818898714,nV_V,2,394.82378843,396.151706645,1,2,0.95229469263,397.124561949,1,1,0.210676464019,5,6.0,32,bw,99.7809238193,2019_may_16_1118,008,256,20,5,alvaro,Experiment_EEG_version,20,
Nonliving_Things,../experiment_stimuli/bw_bc_bl/Nonliving_Things/Buildings/church_5.jpg,Buildings,0,church,0,94,94,17,399.068139795,V_nV,2,399.072894178,400.420989608,1,2,0.681709984899,401.123255927,3,0,0.230720398831,5,6.5,32,bw,99.7809238193,2019_may_16_1118,008,256,20,5,alvaro,Experiment_EEG_version,20,
Living_Things,../experiment_stimuli/bw_bc_bl/Living_Things/Birds/seagull_18.jpg,Birds,0,seagull,0,95,95,74,403.086884992,V_nV,1,403.091729235,404.419676405,1,1,0.761884224019,405.20211797,1,1,0.250619842787,5,6.5,32,bw,99.7809238193,2019_may_16_1118,008,256,20,5,alvaro,Experiment_EEG_version,20,
