category,probe_path,subcategory,fixation_duration,label,trials.thisRepN,trials.thisTrialN,trials.thisN,trials.thisIndex,image_onset_time,response_window,correctAns,probe_onset,discrim_resptime,response.corr,response.keys,response.rt,visible_resptime,visible.keys,visible.corr,visible.rt,probeFrames,jitter2,n_square,experiment_color,frameRate,date,session,image_size,premask_dur,probeFrames,participant,expName,postmask_dur,
Living_Things,../experiment_stimuli/bw_bc_bl/Living_Things/Birds/duck_8.jpg,Birds,0,duck,0,0,0,26,3.71486004908,nV_V,2,3.73750746995,4.99751624744,1,2,0.481274017133,5.50966951391,3,0,0.340967172757,5,7.0,32,bw,99.7806879515,2019_jun_14_1227,011,256,20,5,jesica,Experiment_EEG_version,20,
Living_Things,../experiment_stimuli/bw_bc_bl/Living_Things/Marine_creatures/sperm-whale_20.jpg,Marine_creatures,0,sperm-whale,0,1,1,80,7.58323511062,nV_V,2,7.58812129637,8.82583900262,0,1,0.250850982498,9.09724961547,1,1,0.220695782918,5,6.0,32,bw,99.7806879515,2019_jun_14_1227,011,256,20,5,jesica,Experiment_EEG_version,20,
Nonliving_Things,../experiment_stimuli/bw_bc_bl/Nonliving_Things/Kitchen_Uten/small-saucepan_3.jpg,Kitchen_Uten,0,small-saucepan,0,2,2,77,11.050782653,V_nV,2,11.0556284338,12.3033963828,0,1,0.280836489052,12.6148050809,1,1,0.220691693015,5,7.5,32,bw,99.7806879515,2019_jun_14_1227,011,256,20,5,jesica,Experiment_EEG_version,20,
Living_Things,../experiment_stimuli/bw_bc_bl/Living_Things/Animals/zebra_15.jpg,Animals,0,zebra,0,3,3,95,14.568421531,V_nV,1,14.5734945,15.8310671733,1,1,0.811997626442,16.6636009268,2,0,0.180609717965,5,6.5,32,bw,99.7806879515,2019_jun_14_1227,011,256,20,5,jesica,Experiment_EEG_version,20,
Nonliving_Things,../experiment_stimuli/bw_bc_bl/Nonliving_Things/Vehicles/bus_10.jpg,Vehicles,0,bus,0,4,4,9,18.5771388267,nV_V,1,18.5828911318,19.8297616052,1,1,2.06472159177,21.9150650152,2,0,0.290858338121,5,6.5,32,bw,99.7806879515,2019_jun_14_1227,011,256,20,5,jesica,Experiment_EEG_version,20,
Nonliving_Things,../experiment_stimuli/bw_bc_bl/Nonliving_Things/Vehicles/boat_1.jpg,Vehicles,0,boat,0,5,5,7,23.938790408,nV_V,1,23.9436238166,25.1813978525,1,1,3.80850926461,29.0104509359,1,1,0.200502474327,5,6.0,32,bw,99.7806879515,2019_jun_14_1227,011,256,20,5,jesica,Experiment_EEG_version,20,
Nonliving_Things,../experiment_stimuli/bw_bc_bl/Nonliving_Things/Musical_Inst/tuba_2.jpg,Musical_Inst,0,tuba,0,6,6,89,30.9440203756,nV_V,1,30.9491077582,32.2166874651,1,1,0.942270501517,33.1795262885,3,0,0.230741119944,5,6.0,32,bw,99.7806879515,2019_jun_14_1227,011,256,20,5,jesica,Experiment_EEG_version,20,
Nonliving_Things,../experiment_stimuli/bw_bc_bl/Nonliving_Things/Vehicles/car_21.jpg,Vehicles,0,car,0,7,7,11,35.1431479296,V_nV,2,35.1480771718,36.3957752041,1,2,0.842057207134,37.2583736437,1,1,0.561445820145,5,6.0,32,bw,99.7806879515,2019_jun_14_1227,011,256,20,5,jesica,Experiment_EEG_version,20,
Nonliving_Things,../experiment_stimuli/bw_bc_bl/Nonliving_Things/Vehicles/tractor_18.jpg,Vehicles,0,tractor,0,8,8,86,39.5527343,nV_V,1,39.5582409813,40.8153817807,1,1,0.671689711045,41.5076237959,1,1,0.180610229261,5,7.0,32,bw,99.7806879515,2019_jun_14_1227,011,256,20,5,jesica,Experiment_EEG_version,20,
Nonliving_Things,../experiment_stimuli/bw_bc_bl/Nonliving_Things/Buildings/factory_26.jpg,Buildings,0,factory,0,9,9,28,43.4211849207,V_nV,2,43.4267768259,44.6938146609,0,1,1.02250875439,45.73687123,1,1,0.200655250344,5,6.5,32,bw,99.7806879515,2019_jun_14_1227,011,256,20,5,jesica,Experiment_EEG_version,20,
Nonliving_Things,../experiment_stimuli/bw_bc_bl/Nonliving_Things/Kitchen_Uten/cup_15.jpg,Kitchen_Uten,0,cup,0,10,10,22,47.6703874907,nV_V,1,47.6751997676,48.9731152095,1,1,0.681706368458,49.6753649227,3,0,0.210678926203,5,6.0,32,bw,99.7806879515,2019_jun_14_1227,011,256,20,5,jesica,Experiment_EEG_version,20,
Living_Things,../experiment_stimuli/bw_bc_bl/Living_Things/Animals/cow_22.jpg,Animals,0,cow,0,11,11,20,51.6189883915,V_nV,1,51.623999102,52.8916349397,0,2,0.641642708797,53.5538341212,3,0,0.260783576872,5,6.5,32,bw,99.7806879515,2019_jun_14_1227,011,256,20,5,jesica,Experiment_EEG_version,20,
Nonliving_Things,../experiment_stimuli/bw_bc_bl/Nonliving_Things/Furniture/table_3.jpg,Furniture,0,table,0,12,12,81,55.5475118659,nV_V,1,55.5523735411,56.8001331445,1,1,1.25296874391,58.083681033,1,1,0.230718075298,5,6.0,32,bw,99.7806879515,2019_jun_14_1227,011,256,20,5,jesica,Experiment_EEG_version,20,
Nonliving_Things,../experiment_stimuli/bw_bc_bl/Nonliving_Things/Musical_Inst/saxophone_24.jpg,Musical_Inst,0,saxophone,0,13,13,72,60.0473003923,nV_V,1,60.0523605193,61.3099362869,1,1,0.531378329732,61.8618592322,1,1,0.200652972329,5,7.5,32,bw,99.7806879515,2019_jun_14_1227,011,256,20,5,jesica,Experiment_EEG_version,20,
Nonliving_Things,../experiment_stimuli/bw_bc_bl/Nonliving_Things/Furniture/sofa_11.jpg,Furniture,0,sofa,0,14,14,78,63.79544101,V_nV,2,63.8004196119,65.0781406099,1,2,0.832039346918,65.9307441097,2,0,0.230731733143,5,6.5,32,bw,99.7806879515,2019_jun_14_1227,011,256,20,5,jesica,Experiment_EEG_version,20,
Nonliving_Things,../experiment_stimuli/bw_bc_bl/Nonliving_Things/Kitchen_Uten/pot_9.jpg,Kitchen_Uten,0,pot,0,15,15,66,67.8943500365,V_nV,2,67.8994957004,69.1670213589,1,2,2.30523142545,71.4928210839,1,1,0.180607469752,5,6.0,32,bw,99.7806879515,2019_jun_14_1227,011,256,20,5,jesica,Experiment_EEG_version,20,
Living_Things,../experiment_stimuli/bw_bc_bl/Living_Things/Birds/toucan_16.jpg,Birds,0,toucan,0,16,16,85,73.4063371792,nV_V,2,73.4111983245,74.7090704059,1,2,1.52354226308,76.2531632092,1,1,0.391068166122,5,6.0,32,bw,99.7806879515,2019_jun_14_1227,011,256,20,5,jesica,Experiment_EEG_version,20,
Nonliving_Things,../experiment_stimuli/bw_bc_bl/Nonliving_Things/Kitchen_Uten/fondue_14.jpg,Kitchen_Uten,0,fondue,0,17,17,30,78.3771485761,V_nV,2,78.3820610931,79.6999178315,0,1,1.14270772878,80.8631810024,3,0,0.432155570015,5,7.5,32,bw,99.7806879515,2019_jun_14_1227,011,256,20,5,jesica,Experiment_EEG_version,20,
Nonliving_Things,../experiment_stimuli/bw_bc_bl/Nonliving_Things/Vehicles/ship_11.jpg,Vehicles,0,ship,0,18,18,76,83.027249089,V_nV,2,83.0322030936,84.3299878789,0,1,1.62377237668,85.9743104051,1,1,0.260781641118,5,6.0,32,bw,99.7806879515,2019_jun_14_1227,011,256,20,5,jesica,Experiment_EEG_version,20,
Nonliving_Things,../experiment_stimuli/bw_bc_bl/Nonliving_Things/Furniture/lectern_7.jpg,Furniture,0,lectern,0,19,19,47,87.9679906308,V_nV,2,87.9736773507,89.3007927835,1,2,2.76625349186,92.0976100899,3,0,0.761879953556,5,6.0,32,bw,99.7806879515,2019_jun_14_1227,011,256,20,5,jesica,Experiment_EEG_version,20,
Nonliving_Things,../experiment_stimuli/bw_bc_bl/Nonliving_Things/Buildings/cathedral_11.jpg,Buildings,0,cathedral,0,20,20,14,94.5923902104,V_nV,2,94.5987005304,95.8951245081,1,2,1.07255671453,96.9882344883,2,0,1.46339938045,5,8.0,32,bw,99.7806879515,2019_jun_14_1227,011,256,20,5,jesica,Experiment_EEG_version,20,
Living_Things,../experiment_stimuli/bw_bc_bl/Living_Things/Birds/goose_17.jpg,Birds,0,goose,0,21,21,34,100.184580107,V_nV,1,100.190324724,101.477268676,1,1,0.832042474765,102.329866537,3,0,2.54577181907,5,6.0,32,bw,99.7806879515,2019_jun_14_1227,011,256,20,5,jesica,Experiment_EEG_version,20,
Nonliving_Things,../experiment_stimuli/bw_bc_bl/Nonliving_Things/Tools/hammer_15.jpg,Tools,0,hammer,0,22,22,37,106.608518054,nV_V,1,106.613459043,107.871168373,1,1,2.97669748962,110.868406414,1,1,0.230723579414,5,7.5,32,bw,99.7806879515,2019_jun_14_1227,011,256,20,5,jesica,Experiment_EEG_version,20,
Living_Things,../experiment_stimuli/bw_bc_bl/Living_Things/Birds/barn-owl_16.jpg,Birds,0,barn-owl,0,23,23,4,112.832045089,nV_V,2,112.838558747,114.104723099,1,2,0.541232699528,114.666524801,1,1,0.240747751202,5,6.0,32,bw,99.7806879515,2019_jun_14_1227,011,256,20,5,jesica,Experiment_EEG_version,20,
Nonliving_Things,../experiment_stimuli/bw_bc_bl/Nonliving_Things/Buildings/house_2.jpg,Buildings,0,house,0,24,24,41,116.640330706,V_nV,2,116.645308699,117.943064301,1,2,1.04251056584,119.006152952,2,0,0.561444068328,5,6.0,32,bw,99.7806879515,2019_jun_14_1227,011,256,20,5,jesica,Experiment_EEG_version,20,
Living_Things,../experiment_stimuli/bw_bc_bl/Living_Things/Animals/cheetah_8.jpg,Animals,0,cheetah,0,25,25,16,121.300462838,nV_V,2,121.306661956,122.593171824,0,1,12.3169979705,134.930747898,1,1,0.210671539418,5,6.0,32,bw,99.7806879515,2019_jun_14_1227,011,256,20,5,jesica,Experiment_EEG_version,20,
Nonliving_Things,../experiment_stimuli/bw_bc_bl/Nonliving_Things/Buildings/mill_17.jpg,Buildings,0,mill,0,26,26,53,136.874316507,nV_V,1,136.88024934,138.187073098,1,1,0.521359041333,138.739021148,3,0,0.280852135736,5,6.5,32,bw,99.7806879515,2019_jun_14_1227,011,256,20,5,jesica,Experiment_EEG_version,20,
Nonliving_Things,../experiment_stimuli/bw_bc_bl/Nonliving_Things/Kitchen_Uten/coking-pot_21.jpg,Kitchen_Uten,0,coking-pot,0,27,27,18,140.75275191,V_nV,2,140.757840382,142.045473298,1,2,0.751857010648,142.817876732,2,0,1.18279641774,5,6.0,32,bw,99.7806879515,2019_jun_14_1227,011,256,20,5,jesica,Experiment_EEG_version,20,
Living_Things,../experiment_stimuli/bw_bc_bl/Living_Things/Animals/armadillo_5.jpg,Animals,0,armadillo,0,28,28,1,145.733587092,V_nV,1,145.738564404,147.016268368,1,1,1.79413082032,148.83093927,2,0,1.29303635797,5,6.5,32,bw,99.7806879515,2019_jun_14_1227,011,256,20,5,jesica,Experiment_EEG_version,20,
Nonliving_Things,../experiment_stimuli/bw_bc_bl/Nonliving_Things/Musical_Inst/drum_15.jpg,Musical_Inst,0,drum,0,29,29,25,151.856897622,V_nV,2,151.862665596,153.129560163,1,2,5.43203854375,158.58214866,2,0,0.371030851733,5,6.0,32,bw,99.7806879515,2019_jun_14_1227,011,256,20,5,jesica,Experiment_EEG_version,20,
Nonliving_Things,../experiment_stimuli/bw_bc_bl/Nonliving_Things/Buildings/castle_2.jpg,Buildings,0,castle,0,30,30,12,160.686087163,V_nV,2,160.69279776,161.948733577,1,2,0.491297753062,162.460580641,2,0,0.240746412892,5,7.5,32,bw,99.7806879515,2019_jun_14_1227,011,256,20,5,jesica,Experiment_EEG_version,20,
Living_Things,../experiment_stimuli/bw_bc_bl/Living_Things/Animals/elephant_25.jpg,Animals,0,elephant,0,31,31,27,164.434233533,nV_V,2,164.439104445,165.686862026,1,2,3.34752265597,169.054937655,3,0,0.721793238074,5,7.0,32,bw,99.7806879515,2019_jun_14_1227,011,256,20,5,jesica,Experiment_EEG_version,20,
Nonliving_Things,../experiment_stimuli/bw_bc_bl/Nonliving_Things/Vehicles/van_9.jpg,Vehicles,0,van,0,32,32,91,171.509622789,V_nV,2,171.514701021,172.742206764,0,1,0.651639678981,173.414410656,1,1,0.300875036512,5,8.0,32,bw,99.7806879515,2019_jun_14_1227,011,256,20,5,jesica,Experiment_EEG_version,20,
Nonliving_Things,../experiment_stimuli/bw_bc_bl/Nonliving_Things/Musical_Inst/piano__4.jpg,Musical_Inst,0,piano,0,33,33,62,175.448182522,V_nV,2,175.454849976,176.710834172,0,1,0.852097454946,177.583491866,2,0,0.631602440029,5,6.5,32,bw,99.7806879515,2019_jun_14_1227,011,256,20,5,jesica,Experiment_EEG_version,20,
Living_Things,../experiment_stimuli/bw_bc_bl/Living_Things/Animals/horse_10.jpg,Animals,0,horse,0,34,34,40,179.947964082,nV_V,2,179.952885696,181.200589455,0,1,0.300880010705,181.522019799,1,1,0.180620123632,5,6.5,32,bw,99.7806879515,2019_jun_14_1227,011,256,20,5,jesica,Experiment_EEG_version,20,
Nonliving_Things,../experiment_stimuli/bw_bc_bl/Nonliving_Things/Furniture/lamp_11.jpg,Furniture,0,lamp,0,35,35,46,183.435547687,V_nV,2,183.440550256,184.718238452,1,2,0.681852295063,185.420649881,3,0,0.250760890078,5,7.0,32,bw,99.7806879515,2019_jun_14_1227,011,256,20,5,jesica,Experiment_EEG_version,20,
Living_Things,../experiment_stimuli/bw_bc_bl/Living_Things/Animals/lynx_22.jpg,Animals,0,lynx,0,36,36,50,187.404177343,nV_V,2,187.410401491,188.656803509,0,1,2.87650046218,191.553865936,1,1,0.230719469953,5,6.0,32,bw,99.7806879515,2019_jun_14_1227,011,256,20,5,jesica,Experiment_EEG_version,20,
Nonliving_Things,../experiment_stimuli/bw_bc_bl/Nonliving_Things/Vehicles/plane_7.jpg,Vehicles,0,plane,0,37,37,64,193.517468122,V_nV,2,193.522478686,194.790149392,1,2,3.22631798219,198.037959051,3,0,0.300874931738,5,6.5,32,bw,99.7806879515,2019_jun_14_1227,011,256,20,5,jesica,Experiment_EEG_version,20,
Living_Things,../experiment_stimuli/bw_bc_bl/Living_Things/Birds/kiwi_22.jpg,Birds,0,kiwi,0,38,38,44,200.071715184,nV_V,2,200.076875017,201.324341316,0,1,1.12266868865,202.467570285,1,1,0.230723000597,5,7.5,32,bw,99.7806879515,2019_jun_14_1227,011,256,20,5,jesica,Experiment_EEG_version,20,
Living_Things,../experiment_stimuli/bw_bc_bl/Living_Things/Birds/pelican_2.jpg,Birds,0,pelican,0,39,39,60,204.43120278,nV_V,2,204.436198634,205.703861452,1,2,0.822037640493,206.54644952,2,0,1.17277637729,5,6.5,32,bw,99.7806879515,2019_jun_14_1227,011,256,20,5,jesica,Experiment_EEG_version,20,
Living_Things,../experiment_stimuli/bw_bc_bl/Living_Things/Insects/butterfly_15.jpg,Insects,0,butterfly,0,40,40,10,209.452113974,V_nV,1,209.459090435,210.714759443,1,1,0.521352556068,211.256659168,3,0,0.210685854778,5,6.0,32,bw,99.7806879515,2019_jun_14_1227,011,256,20,5,jesica,Experiment_EEG_version,20,
Nonliving_Things,../experiment_stimuli/bw_bc_bl/Nonliving_Things/Furniture/wardrobe_14.jpg,Furniture,0,wardrobe,0,41,41,93,213.200278505,V_nV,2,213.20512941,214.442864382,1,2,4.54010175355,219.003587596,1,1,1.13268349227,5,6.0,32,bw,99.7806879515,2019_jun_14_1227,011,256,20,5,jesica,Experiment_EEG_version,20,
Living_Things,../experiment_stimuli/bw_bc_bl/Living_Things/Marine_creatures/pomfret_5.jpg,Marine_creatures,0,pomfret,0,42,42,65,221.869112663,nV_V,2,221.874084814,223.131766734,0,1,6.08345662383,229.235779965,2,0,1.01242187247,5,6.0,32,bw,99.7806879515,2019_jun_14_1227,011,256,20,5,jesica,Experiment_EEG_version,20,
Living_Things,../experiment_stimuli/bw_bc_bl/Living_Things/Animals/rhino_18.jpg,Animals,0,rhino,0,43,43,68,231.981100475,nV_V,2,231.986029353,233.233719303,0,1,1.78394284612,235.038247572,1,1,0.190632652957,5,6.0,32,bw,99.7806879515,2019_jun_14_1227,011,256,20,5,jesica,Experiment_EEG_version,20,
Nonliving_Things,../experiment_stimuli/bw_bc_bl/Nonliving_Things/Furniture/bookcase_3.jpg,Furniture,0,bookcase,0,44,44,8,236.961922296,V_nV,2,236.966896,238.224572965,1,2,0.601537121926,238.846668221,1,1,0.200659344438,5,6.5,32,bw,99.7806879515,2019_jun_14_1227,011,256,20,5,jesica,Experiment_EEG_version,20,
Nonliving_Things,../experiment_stimuli/bw_bc_bl/Nonliving_Things/Kitchen_Uten/saucepan_13.jpg,Kitchen_Uten,0,saucepan,0,45,45,71,240.780220966,V_nV,2,240.785159742,242.072937986,1,2,0.781929271761,242.87540961,3,0,0.310897122603,5,6.0,32,bw,99.7806879515,2019_jun_14_1227,011,256,20,5,jesica,Experiment_EEG_version,20,
Nonliving_Things,../experiment_stimuli/bw_bc_bl/Nonliving_Things/Furniture/armchair_15.jpg,Furniture,0,armchair,0,46,46,2,244.919226403,nV_V,1,244.925271573,246.181872437,1,1,0.531381389592,246.733796164,2,0,0.230714113452,5,7.5,32,bw,99.7806879515,2019_jun_14_1227,011,256,20,5,jesica,Experiment_EEG_version,20,
Living_Things,../experiment_stimuli/bw_bc_bl/Living_Things/Marine_creatures/whale_20.jpg,Marine_creatures,0,whale,0,47,47,94,248.697437388,nV_V,2,248.70345699,249.950062617,1,2,2.12485060235,252.095475204,3,0,0.952287884429,5,6.0,32,bw,99.7806879515,2019_jun_14_1227,011,256,20,5,jesica,Experiment_EEG_version,20,
Nonliving_Things,../experiment_stimuli/bw_bc_bl/Nonliving_Things/Furniture/chair_15.jpg,Furniture,0,chair,0,48,48,15,254.780666616,V_nV,2,254.785678631,256.013248073,0,1,2.90655466355,258.940370964,1,1,0.230723248329,5,6.0,32,bw,99.7806879515,2019_jun_14_1227,011,256,20,5,jesica,Experiment_EEG_version,20,
Living_Things,../experiment_stimuli/bw_bc_bl/Living_Things/Animals/tiger_4.jpg,Animals,0,tiger,0,49,49,84,260.903975056,V_nV,1,260.909127179,262.166635965,1,1,3.8786583012,266.065837627,1,1,0.240752254613,5,7.0,32,bw,99.7806879515,2019_jun_14_1227,011,256,20,5,jesica,Experiment_EEG_version,20,
Living_Things,../experiment_stimuli/bw_bc_bl/Living_Things/Marine_creatures/killer-whale_7.jpg,Marine_creatures,0,killer-whale,0,50,50,43,268.039514214,nV_V,2,268.044558673,269.332201689,1,2,0.871963643469,270.224731551,2,0,0.361022292171,5,7.5,32,bw,99.7806879515,2019_jun_14_1227,011,256,20,5,jesica,Experiment_EEG_version,20,
Nonliving_Things,../experiment_stimuli/bw_bc_bl/Nonliving_Things/Furniture/couch_13.jpg,Furniture,0,couch,0,51,51,19,272.318801507,nV_V,1,272.325904433,273.60148725,1,1,0.6917507248,274.313803365,2,0,0.290855879895,5,6.0,32,bw,99.7806879515,2019_jun_14_1227,011,256,20,5,jesica,Experiment_EEG_version,20,
Living_Things,../experiment_stimuli/bw_bc_bl/Living_Things/Marine_creatures/shark_24.jpg,Marine_creatures,0,shark,0,52,52,75,276.337533148,V_nV,1,276.342537457,277.61020914,0,2,6.32397941174,283.954734634,2,0,0.230721966363,5,8.0,32,bw,99.7806879515,2019_jun_14_1227,011,256,20,5,jesica,Experiment_EEG_version,20,
Living_Things,../experiment_stimuli/bw_bc_bl/Living_Things/Animals/turtle_1.jpg,Animals,0,turtle,0,53,53,90,285.918360647,V_nV,1,285.923372203,287.181006105,1,1,11.9862894285,299.187861506,1,1,0.180609785952,5,7.5,32,bw,99.7806879515,2019_jun_14_1227,011,256,20,5,jesica,Experiment_EEG_version,20,
Living_Things,../experiment_stimuli/bw_bc_bl/Living_Things/Birds/pigeon_12.jpg,Birds,0,pigeon,0,54,54,63,301.101398082,nV_V,2,301.106508747,302.384061296,1,2,1.37321595009,303.777839951,2,0,0.250793487299,5,6.0,32,bw,99.7806879515,2019_jun_14_1227,011,256,20,5,jesica,Experiment_EEG_version,20,
Nonliving_Things,../experiment_stimuli/bw_bc_bl/Nonliving_Things/Kitchen_Uten/teapot_9.jpg,Kitchen_Uten,0,teapot,0,55,55,83,305.761498226,nV_V,1,305.766530681,307.034185514,1,1,0.801967056002,307.856690468,3,0,0.310884288047,5,7.0,32,bw,99.7806879515,2019_jun_14_1227,011,256,20,5,jesica,Experiment_EEG_version,20,
Living_Things,../experiment_stimuli/bw_bc_bl/Living_Things/Birds/goldfinch_20.jpg,Birds,0,goldfinch,0,56,56,33,309.900514544,V_nV,1,309.905600659,311.15312477,1,1,0.401098883711,311.574793501,1,1,0.280832774937,5,6.5,32,bw,99.7806879515,2019_jun_14_1227,011,256,20,5,jesica,Experiment_EEG_version,20,
Nonliving_Things,../experiment_stimuli/bw_bc_bl/Nonliving_Things/Vehicles/train_18.jpg,Vehicles,0,train,0,57,57,87,313.588531989,nV_V,1,313.594771817,314.871212746,1,1,4.18933180673,319.081101112,1,1,0.200502929278,5,6.0,32,bw,99.7806879515,2019_jun_14_1227,011,256,20,5,jesica,Experiment_EEG_version,20,
Living_Things,../experiment_stimuli/bw_bc_bl/Living_Things/Insects/scorpion_11.jpg,Insects,0,scorpion,0,58,58,73,321.014667135,V_nV,1,321.022225888,322.317408429,1,1,0.601532039233,322.939497956,2,0,0.210683565587,5,7.0,32,bw,99.7806879515,2019_jun_14_1227,011,256,20,5,jesica,Experiment_EEG_version,20,
Living_Things,../experiment_stimuli/bw_bc_bl/Living_Things/Birds/seagull_23.jpg,Birds,0,seagull,0,59,59,74,324.883074538,V_nV,1,324.889340941,326.17579025,1,1,9.94184094854,336.13818928,1,1,0.230714951642,5,6.5,32,bw,99.7806879515,2019_jun_14_1227,011,256,20,5,jesica,Experiment_EEG_version,20,
Living_Things,../experiment_stimuli/bw_bc_bl/Living_Things/Birds/owl_22.jpg,Birds,0,owl,0,60,60,57,338.101816985,V_nV,1,338.107962266,339.434615882,1,1,1.37321603624,340.828374865,3,0,0.381048196927,5,6.5,32,bw,99.7806879515,2019_jun_14_1227,011,256,20,5,jesica,Experiment_EEG_version,20,
Nonliving_Things,../experiment_stimuli/bw_bc_bl/Nonliving_Things/Vehicles/motorbike_17.jpg,Vehicles,0,motorbike,0,61,61,54,342.942392728,nV_V,1,342.947499468,344.245079951,1,1,1.37321028113,345.638837318,3,0,0.320915039629,5,6.0,32,bw,99.7806879515,2019_jun_14_1227,011,256,20,5,jesica,Experiment_EEG_version,20,
Living_Things,../experiment_stimuli/bw_bc_bl/Living_Things/Marine_creatures/manatee_26.jpg,Marine_creatures,0,manatee,0,62,62,52,347.692690524,nV_V,2,347.697629687,348.965337297,0,1,5.62245910196,354.608363335,1,1,0.240872377064,5,6.5,32,bw,99.7806879515,2019_jun_14_1227,011,256,20,5,jesica,Experiment_EEG_version,20,
Living_Things,../experiment_stimuli/bw_bc_bl/Living_Things/Animals/hippopotamus_12.jpg,Animals,0,hippopotamus,0,63,63,39,356.582010257,nV_V,2,356.587052505,357.864696943,1,2,1.10246068472,358.987713506,2,0,0.330936952028,5,6.5,32,bw,99.7806879515,2019_jun_14_1227,011,256,20,5,jesica,Experiment_EEG_version,20,
Nonliving_Things,../experiment_stimuli/bw_bc_bl/Nonliving_Things/Kitchen_Uten/frying-pan_16.jpg,Kitchen_Uten,0,frying-pan,0,64,64,31,361.05171124,V_nV,2,361.056551686,362.334401686,1,2,0.561449421104,362.916414437,1,1,0.250763826072,5,7.5,32,bw,99.7806879515,2019_jun_14_1227,011,256,20,5,jesica,Experiment_EEG_version,20,
Living_Things,../experiment_stimuli/bw_bc_bl/Living_Things/Birds/raven_10.jpg,Birds,0,raven,0,65,65,67,364.900078975,V_nV,1,364.905282379,366.202816483,1,1,6.90523111774,373.13861975,1,1,0.200653148815,5,7.0,32,bw,99.7806879515,2019_jun_14_1227,011,256,20,5,jesica,Experiment_EEG_version,20,
Living_Things,../experiment_stimuli/bw_bc_bl/Living_Things/Birds/hen_16.jpg,Birds,0,hen,0,66,66,38,375.072190874,nV_V,2,375.07719328,376.405018447,0,1,0.420978297945,376.846531808,1,1,0.150557825342,5,6.0,32,bw,99.7806879515,2019_jun_14_1227,011,256,20,5,jesica,Experiment_EEG_version,20,
Living_Things,../experiment_stimuli/bw_bc_bl/Living_Things/Birds/hummingbird_25.jpg,Birds,0,hummingbird,0,67,67,42,378.730150821,nV_V,2,378.735113299,380.082992957,0,1,0.461223364342,380.564787306,1,1,0.190635296516,5,6.0,32,bw,99.7806879515,2019_jun_14_1227,011,256,20,5,jesica,Experiment_EEG_version,20,
Nonliving_Things,../experiment_stimuli/bw_bc_bl/Nonliving_Things/Furniture/bed_10.jpg,Furniture,0,bed,0,68,68,5,382.488316517,nV_V,1,382.493288123,383.87122711,0,2,0.711772689596,384.603560118,3,0,0.280831703916,5,6.0,32,bw,99.7806879515,2019_jun_14_1227,011,256,20,5,jesica,Experiment_EEG_version,20,
Nonliving_Things,../experiment_stimuli/bw_bc_bl/Nonliving_Things/Tools/axe_13.jpg,Tools,0,axe,0,69,69,3,386.617293057,V_nV,2,386.622338113,387.980162373,0,1,7.72703936743,395.727766871,1,1,0.220700982027,5,6.5,32,bw,99.7806879515,2019_jun_14_1227,011,256,20,5,jesica,Experiment_EEG_version,20,
Nonliving_Things,../experiment_stimuli/bw_bc_bl/Nonliving_Things/Buildings/granary_3.jpg,Buildings,0,granary,0,70,70,35,397.681356264,nV_V,1,397.686419595,399.064261019,1,1,0.581491228659,399.666297596,3,0,0.280824459624,5,6.0,32,bw,99.7806879515,2019_jun_14_1227,011,256,20,5,jesica,Experiment_EEG_version,20,
Living_Things,../experiment_stimuli/bw_bc_bl/Living_Things/Birds/ostrich_24.jpg,Birds,0,ostrich,0,71,71,56,401.680043979,V_nV,1,401.68496957,403.052931583,1,1,0.842075195629,403.915570556,2,0,0.190644686576,5,6.0,32,bw,99.7806879515,2019_jun_14_1227,011,256,20,5,jesica,Experiment_EEG_version,20,
Nonliving_Things,../experiment_stimuli/bw_bc_bl/Nonliving_Things/Furniture/filling-cabinet_6.jpg,Furniture,0,filling-cabinet,0,72,72,29,405.839085159,nV_V,1,405.843986913,407.201955701,1,1,9.38064235402,416.603140614,1,1,0.200666479766,5,6.0,32,bw,99.7806879515,2019_jun_14_1227,011,256,20,5,jesica,Experiment_EEG_version,20,
Living_Things,../experiment_stimuli/bw_bc_bl/Living_Things/Insects/dragonfly_1.jpg,Insects,0,dragonfly,0,73,73,24,418.536706817,V_nV,1,418.543101591,419.899558679,1,1,0.671696688514,420.591814686,3,0,0.230717842467,5,7.5,32,bw,99.7806879515,2019_jun_14_1227,011,256,20,5,jesica,Experiment_EEG_version,20,
Living_Things,../experiment_stimuli/bw_bc_bl/Living_Things/Marine_creatures/dolphin_21.jpg,Marine_creatures,0,dolphin,0,74,74,23,422.55543418,nV_V,2,422.561849668,423.898254904,0,1,0.511339643039,424.430166576,2,0,0.22069924511,5,6.0,32,bw,99.7806879515,2019_jun_14_1227,011,256,20,5,jesica,Experiment_EEG_version,20,
Living_Things,../experiment_stimuli/bw_bc_bl/Living_Things/Animals/giraffe_26.jpg,Animals,0,giraffe,0,75,75,32,426.393788063,nV_V,2,426.39884098,427.726576189,0,1,8.99979304522,436.746937673,1,1,0.200657904614,5,6.0,32,bw,99.7806879515,2019_jun_14_1227,011,256,20,5,jesica,Experiment_EEG_version,20,
Living_Things,../experiment_stimuli/bw_bc_bl/Living_Things/Birds/sparrow_1.jpg,Birds,0,sparrow,0,76,76,79,438.680492523,nV_V,2,438.685777824,440.03334934,1,2,0.661663388368,440.715563104,3,0,0.32091478724,5,6.0,32,bw,99.7806879515,2019_jun_14_1227,011,256,20,5,jesica,Experiment_EEG_version,20,
Living_Things,../experiment_stimuli/bw_bc_bl/Living_Things/Birds/penguin_23.jpg,Birds,0,penguin,0,77,77,61,442.76937531,V_nV,1,442.774370585,444.082138378,1,1,0.531382905319,444.634064401,3,0,0.220694380347,5,7.5,32,bw,99.7806879515,2019_jun_14_1227,011,256,20,5,jesica,Experiment_EEG_version,20,
Nonliving_Things,../experiment_stimuli/bw_bc_bl/Nonliving_Things/Musical_Inst/trumpet_3.jpg,Musical_Inst,0,trumpet,0,78,78,88,446.587698212,nV_V,1,446.592880161,447.880402458,1,1,0.801970488392,448.702906799,2,0,1.29303542944,5,8.0,32,bw,99.7806879515,2019_jun_14_1227,011,256,20,5,jesica,Experiment_EEG_version,20,
Nonliving_Things,../experiment_stimuli/bw_bc_bl/Nonliving_Things/Musical_Inst/guitar_7.jpg,Musical_Inst,0,guitar,0,79,79,36,451.728857136,V_nV,2,451.733838354,453.02158028,0,1,9.20022353949,462.242370171,1,1,0.200652445666,5,6.0,32,bw,99.7806879515,2019_jun_14_1227,011,256,20,5,jesica,Experiment_EEG_version,20,
Living_Things,../experiment_stimuli/bw_bc_bl/Living_Things/Animals/lioness_9.jpg,Animals,0,lioness,0,80,80,48,464.175955318,V_nV,1,464.18106243,465.47865609,1,1,0.952297350392,466.451498308,3,0,0.16057129018,5,6.0,32,bw,99.7806879515,2019_jun_14_1227,011,256,20,5,jesica,Experiment_EEG_version,20,
Nonliving_Things,../experiment_stimuli/bw_bc_bl/Nonliving_Things/Buildings/palace_4.jpg,Buildings,0,palace,0,81,81,58,468.344990754,V_nV,2,468.352931953,469.637711985,1,2,0.43118208833,470.0894453,1,1,0.250615155324,5,7.5,32,bw,99.7806879515,2019_jun_14_1227,011,256,20,5,jesica,Experiment_EEG_version,20,
Living_Things,../experiment_stimuli/bw_bc_bl/Living_Things/Animals/tapir_23.jpg,Animals,0,tapir,0,82,82,82,472.073088497,nV_V,2,472.078079686,473.365805961,1,2,0.591516776942,473.977879342,2,0,0.200653964654,5,6.5,32,bw,99.7806879515,2019_jun_14_1227,011,256,20,5,jesica,Experiment_EEG_version,20,
Living_Things,../experiment_stimuli/bw_bc_bl/Living_Things/Birds/partridge_4.jpg,Birds,0,partridge,0,83,83,59,475.92147133,V_nV,1,475.926531709,477.204153264,1,1,0.571470514871,477.796163286,2,0,0.190632062964,5,6.0,32,bw,99.7806879515,2019_jun_14_1227,011,256,20,5,jesica,Experiment_EEG_version,20,
Living_Things,../experiment_stimuli/bw_bc_bl/Living_Things/Insects/ladybird_8.jpg,Insects,0,ladybird,0,84,84,45,479.719739008,V_nV,1,479.726288133,481.002413695,1,1,1.78409747873,482.807056876,1,1,0.180608837865,5,6.5,32,bw,99.7806879515,2019_jun_14_1227,011,256,20,5,jesica,Experiment_EEG_version,20,
Nonliving_Things,../experiment_stimuli/bw_bc_bl/Nonliving_Things/Furniture/Chest-of-drawers_5.jpg,Furniture,0,Chest-of-drawers,0,85,85,0,484.720615963,V_nV,2,484.725620095,486.013303145,0,1,2.69610329764,488.729964118,3,0,1.23290844075,5,6.0,32,bw,99.7806879515,2019_jun_14_1227,011,256,20,5,jesica,Experiment_EEG_version,20,
Nonliving_Things,../experiment_stimuli/bw_bc_bl/Nonliving_Things/Musical_Inst/violin_15.jpg,Musical_Inst,0,violin,0,86,86,92,491.705789816,nV_V,1,491.712341166,492.988471923,1,1,1.56362608774,494.572640047,3,0,1.09260621667,5,6.0,32,bw,99.7806879515,2019_jun_14_1227,011,256,20,5,jesica,Experiment_EEG_version,20,
Living_Things,../experiment_stimuli/bw_bc_bl/Living_Things/Animals/cat_4.jpg,Animals,0,cat,0,87,87,13,497.398154011,V_nV,1,497.403397274,498.67082372,1,1,8.1780097317,506.869383921,1,1,0.180610123556,5,6.0,32,bw,99.7806879515,2019_jun_14_1227,011,256,20,5,jesica,Experiment_EEG_version,20,
Nonliving_Things,../experiment_stimuli/bw_bc_bl/Nonliving_Things/Buildings/church_18.jpg,Buildings,0,church,0,88,88,17,508.782912858,V_nV,2,508.787935482,510.045557444,1,2,0.992388148326,511.058498941,3,0,0.180612007156,5,6.5,32,bw,99.7806879515,2019_jun_14_1227,011,256,20,5,jesica,Experiment_EEG_version,20,
Living_Things,../experiment_stimuli/bw_bc_bl/Living_Things/Marine_creatures/crab_20.jpg,Marine_creatures,0,crab,0,89,89,21,512.982036138,nV_V,2,512.987153761,514.224639485,0,1,0.0503362640738,514.295536567,1,1,0.190635551233,5,6.0,32,bw,99.7806879515,2019_jun_14_1227,011,256,20,5,jesica,Experiment_EEG_version,20,
Living_Things,../experiment_stimuli/bw_bc_bl/Living_Things/Marine_creatures/narwhal_4.jpg,Marine_creatures,0,narwhal,0,90,90,55,516.21908309,nV_V,2,516.224042189,517.491738492,0,1,2.12485613301,519.637158323,2,0,2.13486467721,5,6.5,32,bw,99.7806879515,2019_jun_14_1227,011,256,20,5,jesica,Experiment_EEG_version,20,
Nonliving_Things,../experiment_stimuli/bw_bc_bl/Nonliving_Things/Furniture/rocking-chair_16.jpg,Furniture,0,rocking-chair,0,91,91,69,523.504912382,V_nV,2,523.509985392,524.757537901,1,2,0.681709462311,525.459792862,2,0,0.26078160014,5,6.0,32,bw,99.7806879515,2019_jun_14_1227,011,256,20,5,jesica,Experiment_EEG_version,20,
Living_Things,../experiment_stimuli/bw_bc_bl/Living_Things/Marine_creatures/lobster_22.jpg,Marine_creatures,0,lobster,0,92,92,49,527.453511967,V_nV,1,527.4585645,528.696099197,1,1,0.371032333001,529.087674838,1,1,0.290880950168,5,6.0,32,bw,99.7806879515,2019_jun_14_1227,011,256,20,5,jesica,Experiment_EEG_version,20,
Living_Things,../experiment_stimuli/bw_bc_bl/Living_Things/Birds/magpie_25.jpg,Birds,0,magpie,0,93,93,51,531.121476094,nV_V,2,531.126510601,532.394137548,0,1,0.731814057101,533.146511397,1,1,0.220689316746,5,6.0,32,bw,99.7806879515,2019_jun_14_1227,011,256,20,5,jesica,Experiment_EEG_version,20,
Living_Things,../experiment_stimuli/bw_bc_bl/Living_Things/Birds/rooster_22.jpg,Birds,0,rooster,0,94,94,70,535.110141786,nV_V,2,535.115169358,536.402880618,1,2,0.871962057892,537.29536784,3,0,0.771898234263,5,6.0,32,bw,99.7806879515,2019_jun_14_1227,011,256,20,5,jesica,Experiment_EEG_version,20,
Nonliving_Things,../experiment_stimuli/bw_bc_bl/Nonliving_Things/Furniture/bedside-table_5.jpg,Furniture,0,bedside-table,0,95,95,6,539.810360784,V_nV,2,539.815429216,541.07300978,1,2,0.631613672245,541.7251855,3,0,0.481265648734,5,7.5,32,bw,99.7806879515,2019_jun_14_1227,011,256,20,5,jesica,Experiment_EEG_version,20,
