category,probe_path,subcategory,fixation_duration,label,trials.thisRepN,trials.thisTrialN,trials.thisN,trials.thisIndex,image_onset_time,response_window,correctAns,probe_onset,discrim_resptime,response.corr,response.keys,response.rt,visible_resptime,visible.keys,visible.corr,visible.rt,probeFrames,jitter2,n_square,experiment_color,frameRate,date,session,image_size,premask_dur,probeFrames,participant,expName,postmask_dur,
Nonliving_Things,../experiment_stimuli/bw_bc_bl/Nonliving_Things/Tools/hammer_2.jpg,Tools,0,hammer,0,0,0,37,3.71732189739,nV_V,1,3.73977756873,5.00000673067,1,1,0.551428756677,5.582275155,1,1,0.230714034289,5,7.0,32,bw,99.7868229621,2019_jun_14_1237,012,256,20,5,jesica,Experiment_EEG_version,20,
Living_Things,../experiment_stimuli/bw_bc_bl/Living_Things/Marine_creatures/lobster_23.jpg,Marine_creatures,0,lobster,0,1,1,49,7.54563969094,V_nV,1,7.55071547907,8.84837395838,1,1,1.07257449999,9.94149431447,2,0,0.240745383315,5,6.0,32,bw,99.7868229621,2019_jun_14_1237,012,256,20,5,jesica,Experiment_EEG_version,20,
Nonliving_Things,../experiment_stimuli/bw_bc_bl/Nonliving_Things/Furniture/armchair_22.jpg,Furniture,0,armchair,0,2,2,2,11.9151416728,nV_V,1,11.9200280732,13.2078606104,1,1,0.551423350815,13.7798108328,2,0,0.250767198391,5,6.0,32,bw,99.7868229621,2019_jun_14_1237,012,256,20,5,jesica,Experiment_EEG_version,20,
Nonliving_Things,../experiment_stimuli/bw_bc_bl/Nonliving_Things/Kitchen_Uten/small-saucepan_4.jpg,Kitchen_Uten,0,small-saucepan,0,3,3,77,15.7635050435,V_nV,2,15.7684467812,17.046196369,1,2,0.651649246458,17.7184006856,1,1,0.250765295699,5,6.0,32,bw,99.7868229621,2019_jun_14_1237,012,256,20,5,jesica,Experiment_EEG_version,20,
Living_Things,../experiment_stimuli/bw_bc_bl/Living_Things/Birds/raven_17.jpg,Birds,0,raven,0,4,4,67,19.7020615661,nV_V,2,19.7068932485,21.0047998824,0,1,3.17712863395,24.2024685605,1,1,2.46558904555,5,6.0,32,bw,99.7868229621,2019_jun_14_1237,012,256,20,5,jesica,Experiment_EEG_version,20,
Nonliving_Things,../experiment_stimuli/bw_bc_bl/Nonliving_Things/Furniture/chair_14.jpg,Furniture,0,chair,0,5,5,15,28.4009804279,nV_V,1,28.4059015531,29.7337756599,1,1,0.771907516755,30.5262432238,2,0,0.25075963093,5,7.5,32,bw,99.7868229621,2019_jun_14_1237,012,256,20,5,jesica,Experiment_EEG_version,20,
Living_Things,../experiment_stimuli/bw_bc_bl/Living_Things/Birds/duck_18.jpg,Birds,0,duck,0,6,6,26,32.5099064466,V_nV,1,32.5148275867,33.8326865588,1,1,4.39978684159,38.253042256,3,0,0.270801204722,5,6.0,32,bw,99.7868229621,2019_jun_14_1237,012,256,20,5,jesica,Experiment_EEG_version,20,
Living_Things,../experiment_stimuli/bw_bc_bl/Living_Things/Birds/hen_14.jpg,Birds,0,hen,0,7,7,38,40.2567535639,nV_V,2,40.2615309805,41.5594810005,1,2,1.74401682755,43.3240624699,3,0,0.220695910975,5,6.0,32,bw,99.7868229621,2019_jun_14_1237,012,256,20,5,jesica,Experiment_EEG_version,20,
Living_Things,../experiment_stimuli/bw_bc_bl/Living_Things/Birds/seagull_22.jpg,Birds,0,seagull,0,8,8,74,45.2776629725,V_nV,1,45.2826233078,46.5603520009,1,1,0.962325646542,47.5432331464,1,1,0.200656975619,5,6.5,32,bw,99.7868229621,2019_jun_14_1237,012,256,20,5,jesica,Experiment_EEG_version,20,
Living_Things,../experiment_stimuli/bw_bc_bl/Living_Things/Animals/elephant_14.jpg,Animals,0,elephant,0,9,9,27,49.4768032366,V_nV,1,49.4822151633,50.7695085616,1,1,0.491305139847,51.2813817533,3,0,0.180615357123,5,6.5,32,bw,99.7868229621,2019_jun_14_1237,012,256,20,5,jesica,Experiment_EEG_version,20,
Nonliving_Things,../experiment_stimuli/bw_bc_bl/Nonliving_Things/Kitchen_Uten/saucepan_7.jpg,Kitchen_Uten,0,saucepan,0,10,10,71,53.1948748268,V_nV,2,53.2007687534,54.467544408,0,1,12.8984385608,67.3865382872,1,1,0.200653235428,5,6.0,32,bw,99.7868229621,2019_jun_14_1237,012,256,20,5,jesica,Experiment_EEG_version,20,
Nonliving_Things,../experiment_stimuli/bw_bc_bl/Nonliving_Things/Buildings/castle_1.jpg,Buildings,0,castle,0,11,11,12,69.3199539059,V_nV,2,69.3248050357,70.6026274194,0,1,0.621657442767,71.2448441316,1,1,1.26296929969,5,6.0,32,bw,99.7868229621,2019_jun_14_1237,012,256,20,5,jesica,Experiment_EEG_version,20,
Living_Things,../experiment_stimuli/bw_bc_bl/Living_Things/Marine_creatures/shark_7.jpg,Marine_creatures,0,shark,0,12,12,75,74.240650374,nV_V,2,74.2454406549,75.553392096,0,1,0.471259619575,76.0451921546,1,1,0.220543525647,5,6.5,32,bw,99.7868229621,2019_jun_14_1237,012,256,20,5,jesica,Experiment_EEG_version,20,
Nonliving_Things,../experiment_stimuli/bw_bc_bl/Nonliving_Things/Buildings/factory_3.jpg,Buildings,0,factory,0,13,13,28,77.9988050289,nV_V,1,78.0036572078,79.3215787238,1,1,0.270823738072,79.6129848477,1,1,0.240739236586,5,6.0,32,bw,99.7868229621,2019_jun_14_1237,012,256,20,5,jesica,Experiment_EEG_version,20,
Nonliving_Things,../experiment_stimuli/bw_bc_bl/Nonliving_Things/Furniture/bed_21.jpg,Furniture,0,bed,0,14,14,5,81.5865994357,V_nV,2,81.5914516486,82.9394399859,1,2,0.9923754232,83.9524113699,2,0,0.200656690169,5,6.0,32,bw,99.7868229621,2019_jun_14_1237,012,256,20,5,jesica,Experiment_EEG_version,20,
Nonliving_Things,../experiment_stimuli/bw_bc_bl/Nonliving_Things/Vehicles/tractor_11.jpg,Vehicles,0,tractor,0,15,15,86,85.885944325,nV_V,1,85.8909194497,87.2287623347,1,1,0.511333473958,87.7606616868,3,0,0.170586808585,5,6.5,32,bw,99.7868229621,2019_jun_14_1237,012,256,20,5,jesica,Experiment_EEG_version,20,
Nonliving_Things,../experiment_stimuli/bw_bc_bl/Nonliving_Things/Musical_Inst/saxophone_0.jpg,Musical_Inst,0,saxophone,0,16,16,72,89.6641679597,nV_V,1,89.6698982273,90.9869469027,1,1,0.721803384367,91.7292844779,1,1,0.190620461479,5,6.0,32,bw,99.7868229621,2019_jun_14_1237,012,256,20,5,jesica,Experiment_EEG_version,20,
Nonliving_Things,../experiment_stimuli/bw_bc_bl/Nonliving_Things/Kitchen_Uten/teapot_19.jpg,Kitchen_Uten,0,teapot,0,17,17,83,93.6528319037,nV_V,1,93.6584627931,94.9856376052,1,1,6.17364917789,101.179825226,1,1,0.200653129723,5,7.0,32,bw,99.7868229621,2019_jun_14_1237,012,256,20,5,jesica,Experiment_EEG_version,20,
Living_Things,../experiment_stimuli/bw_bc_bl/Living_Things/Birds/pigeon_10.jpg,Birds,0,pigeon,0,18,18,63,103.113444609,nV_V,2,103.119715808,104.466237524,1,2,0.761888460722,105.248699212,3,0,0.210710433777,5,7.0,32,bw,99.7868229621,2019_jun_14_1237,012,256,20,5,jesica,Experiment_EEG_version,20,
Nonliving_Things,../experiment_stimuli/bw_bc_bl/Nonliving_Things/Furniture/couch_7.jpg,Furniture,0,couch,0,19,19,19,107.192263029,nV_V,1,107.197062381,108.52506517,1,1,0.000251405872405,108.545854087,1,1,0.170585853979,5,7.5,32,bw,99.7868229621,2019_jun_14_1237,012,256,20,5,jesica,Experiment_EEG_version,20,
Living_Things,../experiment_stimuli/bw_bc_bl/Living_Things/Animals/lioness_11.jpg,Animals,0,lioness,0,20,20,48,110.449352367,V_nV,1,110.455034421,111.802192609,1,1,7.76711263927,119.589850607,1,1,0.230718436651,5,7.0,32,bw,99.7868229621,2019_jun_14_1237,012,256,20,5,jesica,Experiment_EEG_version,20,
Living_Things,../experiment_stimuli/bw_bc_bl/Living_Things/Animals/giraffe_0.jpg,Animals,0,giraffe,0,21,21,32,121.553494128,nV_V,2,121.558409798,122.926372211,1,2,0.962162498385,123.909089626,2,0,0.210680528078,5,6.0,32,bw,99.7868229621,2019_jun_14_1237,012,256,20,5,jesica,Experiment_EEG_version,20,
Nonliving_Things,../experiment_stimuli/bw_bc_bl/Nonliving_Things/Furniture/wardrobe_9.jpg,Furniture,0,wardrobe,0,22,22,93,125.852831649,nV_V,1,125.857851525,127.215695932,1,1,1.15275500203,128.389009598,3,0,0.240743239876,5,6.0,32,bw,99.7868229621,2019_jun_14_1237,012,256,20,5,jesica,Experiment_EEG_version,20,
Nonliving_Things,../experiment_stimuli/bw_bc_bl/Nonliving_Things/Furniture/Chest-of-drawers_8.jpg,Furniture,0,Chest-of-drawers,0,23,23,0,130.362652152,V_nV,2,130.368445731,131.695438012,1,2,8.40852730628,140.124545881,2,0,0.240749747492,5,6.5,32,bw,99.7868229621,2019_jun_14_1237,012,256,20,5,jesica,Experiment_EEG_version,20,
Nonliving_Things,../experiment_stimuli/bw_bc_bl/Nonliving_Things/Kitchen_Uten/cup_6.jpg,Kitchen_Uten,0,cup,0,24,24,22,142.098158149,V_nV,2,142.103798618,143.420931938,0,1,3.27735170629,146.718851214,1,1,0.180609214585,5,7.0,32,bw,99.7868229621,2019_jun_14_1237,012,256,20,5,jesica,Experiment_EEG_version,20,
Living_Things,../experiment_stimuli/bw_bc_bl/Living_Things/Birds/kiwi_24.jpg,Birds,0,kiwi,0,25,25,44,148.632361536,V_nV,1,148.637197793,149.975182838,1,1,0.481505517382,150.47725728,3,0,0.190630976576,5,6.5,32,bw,99.7868229621,2019_jun_14_1237,012,256,20,5,jesica,Experiment_EEG_version,20,
Living_Things,../experiment_stimuli/bw_bc_bl/Living_Things/Birds/toucan_17.jpg,Birds,0,toucan,0,26,26,85,152.400569983,V_nV,1,152.406292762,153.723332042,1,1,0.270826030988,154.024729632,1,1,0.200664998498,5,6.0,32,bw,99.7868229621,2019_jun_14_1237,012,256,20,5,jesica,Experiment_EEG_version,20,
Living_Things,../experiment_stimuli/bw_bc_bl/Living_Things/Birds/sparrow_6.jpg,Birds,0,sparrow,0,27,27,79,155.958291298,nV_V,2,155.963269305,157.291083699,1,2,0.982367675286,158.294016482,2,0,0.210683501326,5,6.0,32,bw,99.7868229621,2019_jun_14_1237,012,256,20,5,jesica,Experiment_EEG_version,20,
Nonliving_Things,../experiment_stimuli/bw_bc_bl/Nonliving_Things/Vehicles/train_8.jpg,Vehicles,0,train,0,28,28,87,160.237596605,nV_V,1,160.242427521,161.560366511,0,2,0.571470304392,162.152384528,1,1,1.09259499563,5,6.0,32,bw,99.7868229621,2019_jun_14_1237,012,256,20,5,jesica,Experiment_EEG_version,20,
Nonliving_Things,../experiment_stimuli/bw_bc_bl/Nonliving_Things/Buildings/church_2.jpg,Buildings,0,church,0,29,29,17,164.977900296,nV_V,1,164.98317307,166.310694912,1,1,5.02114274353,171.3523845,3,0,0.371014487464,5,7.0,32,bw,99.7868229621,2019_jun_14_1237,012,256,20,5,jesica,Experiment_EEG_version,20,
Living_Things,../experiment_stimuli/bw_bc_bl/Living_Things/Marine_creatures/killer-whale_26.jpg,Marine_creatures,0,killer-whale,0,30,30,43,173.456337071,V_nV,1,173.462034426,174.769085128,1,1,9.81161767105,184.601272989,1,1,0.230712647084,5,6.0,32,bw,99.7868229621,2019_jun_14_1237,012,256,20,5,jesica,Experiment_EEG_version,20,
Living_Things,../experiment_stimuli/bw_bc_bl/Living_Things/Birds/owl_6.jpg,Birds,0,owl,0,31,31,57,186.564854709,V_nV,1,186.570682187,187.897624356,1,1,0.641604315024,188.559808406,2,0,0.601532539353,5,6.0,32,bw,99.7868229621,2019_jun_14_1237,012,256,20,5,jesica,Experiment_EEG_version,20,
Living_Things,../experiment_stimuli/bw_bc_bl/Living_Things/Animals/tiger_10.jpg,Animals,0,tiger,0,32,32,84,190.894247033,nV_V,2,190.900052101,192.217018066,0,1,4.5400974527,196.777677454,1,1,0.200672956649,5,6.0,32,bw,99.7868229621,2019_jun_14_1237,012,256,20,5,jesica,Experiment_EEG_version,20,
Nonliving_Things,../experiment_stimuli/bw_bc_bl/Nonliving_Things/Kitchen_Uten/coking-pot_9.jpg,Kitchen_Uten,0,coking-pot,0,33,33,18,198.711236842,nV_V,1,198.716166448,200.064075798,0,2,1.21270590695,201.297364011,3,0,0.210678671021,5,6.0,32,bw,99.7868229621,2019_jun_14_1237,012,256,20,5,jesica,Experiment_EEG_version,20,
Nonliving_Things,../experiment_stimuli/bw_bc_bl/Nonliving_Things/Furniture/table_10.jpg,Furniture,0,table,0,34,34,81,203.241083539,nV_V,1,203.246019193,204.573882988,1,1,11.6555613861,216.249989104,1,1,0.210689919069,5,6.5,32,bw,99.7868229621,2019_jun_14_1237,012,256,20,5,jesica,Experiment_EEG_version,20,
Living_Things,../experiment_stimuli/bw_bc_bl/Living_Things/Birds/penguin_3.jpg,Birds,0,penguin,0,35,35,61,218.19359673,nV_V,2,218.198535438,219.536415567,0,1,0.561461658217,220.11845222,2,0,0.260782840196,5,7.5,32,bw,99.7868229621,2019_jun_14_1237,012,256,20,5,jesica,Experiment_EEG_version,20,
Nonliving_Things,../experiment_stimuli/bw_bc_bl/Nonliving_Things/Furniture/filling-cabinet_13.jpg,Furniture,0,filling-cabinet,0,36,36,29,222.112156378,V_nV,2,222.116909434,223.444910437,1,2,0.902188410051,224.367652873,3,0,0.371019648854,5,6.5,32,bw,99.7868229621,2019_jun_14_1237,012,256,20,5,jesica,Experiment_EEG_version,20,
Living_Things,../experiment_stimuli/bw_bc_bl/Living_Things/Insects/ladybird_14.jpg,Insects,0,ladybird,0,37,37,45,226.471595147,V_nV,1,226.477432609,227.784346914,1,1,2.56580205075,230.371516095,1,1,0.230741297361,5,6.0,32,bw,99.7868229621,2019_jun_14_1237,012,256,20,5,jesica,Experiment_EEG_version,20,
Nonliving_Things,../experiment_stimuli/bw_bc_bl/Nonliving_Things/Musical_Inst/piano__10.jpg,Musical_Inst,0,piano,0,38,38,62,232.334344965,nV_V,1,232.340190055,233.677152178,1,1,11.9061308885,245.603854911,1,1,0.230738830753,5,6.0,32,bw,99.7868229621,2019_jun_14_1237,012,256,20,5,jesica,Experiment_EEG_version,20,
Nonliving_Things,../experiment_stimuli/bw_bc_bl/Nonliving_Things/Vehicles/bus_25.jpg,Vehicles,0,bus,0,39,39,9,247.567452184,V_nV,2,247.572279844,248.930316606,1,2,0.781927425414,249.732795,3,0,0.511337729637,5,6.5,32,bw,99.7868229621,2019_jun_14_1237,012,256,20,5,jesica,Experiment_EEG_version,20,
Living_Things,../experiment_stimuli/bw_bc_bl/Living_Things/Animals/armadillo_8.jpg,Animals,0,armadillo,0,40,40,1,251.977043802,nV_V,2,251.982003352,253.319859737,1,2,2.80633242195,256.14675615,3,0,1.03246605908,5,6.0,32,bw,99.7868229621,2019_jun_14_1237,012,256,20,5,jesica,Experiment_EEG_version,20,
Nonliving_Things,../experiment_stimuli/bw_bc_bl/Nonliving_Things/Musical_Inst/violin_25.jpg,Musical_Inst,0,violin,0,41,41,92,258.912121076,V_nV,2,258.917957142,260.224874696,0,1,28.0111247143,288.256566507,1,1,0.260790735483,5,6.0,32,bw,99.7868229621,2019_jun_14_1237,012,256,20,5,jesica,Experiment_EEG_version,20,
Living_Things,../experiment_stimuli/bw_bc_bl/Living_Things/Birds/barn-owl_26.jpg,Birds,0,barn-owl,0,42,42,4,290.250277375,V_nV,1,290.256079634,291.573031732,1,1,0.711777938064,292.305362191,2,0,0.250760837458,5,6.0,32,bw,99.7868229621,2019_jun_14_1237,012,256,20,5,jesica,Experiment_EEG_version,20,
Living_Things,../experiment_stimuli/bw_bc_bl/Living_Things/Insects/scorpion_16.jpg,Insects,0,scorpion,0,43,43,73,294.289032598,V_nV,1,294.294084841,295.60179044,0,2,1.09262035182,296.714982816,1,1,0.21067838138,5,6.0,32,bw,99.7868229621,2019_jun_14_1237,012,256,20,5,jesica,Experiment_EEG_version,20,
Living_Things,../experiment_stimuli/bw_bc_bl/Living_Things/Marine_creatures/pomfret_7.jpg,Marine_creatures,0,pomfret,0,44,44,65,298.658529136,nV_V,2,298.663466292,300.001355289,1,2,0.561446583364,300.583344104,1,1,0.20064792363,5,8.0,32,bw,99.7868229621,2019_jun_14_1237,012,256,20,5,jesica,Experiment_EEG_version,20,
Nonliving_Things,../experiment_stimuli/bw_bc_bl/Nonliving_Things/Musical_Inst/tuba_1.jpg,Musical_Inst,0,tuba,0,45,45,89,302.516920551,nV_V,1,302.521849924,303.889804664,1,1,0.601533415262,304.511906901,3,0,0.180616781581,5,6.0,32,bw,99.7868229621,2019_jun_14_1237,012,256,20,5,jesica,Experiment_EEG_version,20,
Living_Things,../experiment_stimuli/bw_bc_bl/Living_Things/Animals/rhino_1.jpg,Animals,0,rhino,0,46,46,68,306.425419414,nV_V,2,306.431519282,307.778260997,1,2,1.25296172872,309.051784135,3,0,0.250762126874,5,6.0,32,bw,99.7868229621,2019_jun_14_1237,012,256,20,5,jesica,Experiment_EEG_version,20,
Nonliving_Things,../experiment_stimuli/bw_bc_bl/Nonliving_Things/Kitchen_Uten/pot_7.jpg,Kitchen_Uten,0,pot,0,47,47,66,311.035442031,V_nV,2,311.040240033,312.358215797,1,2,0.600680739153,312.980320147,3,0,0.160569053609,5,7.5,32,bw,99.7868229621,2019_jun_14_1237,012,256,20,5,jesica,Experiment_EEG_version,20,
Living_Things,../experiment_stimuli/bw_bc_bl/Living_Things/Birds/ostrich_11.jpg,Birds,0,ostrich,0,48,48,56,314.87379074,V_nV,1,314.878657918,316.176529301,1,1,0.721794019919,316.918857143,3,0,0.180632097647,5,6.0,32,bw,99.7868229621,2019_jun_14_1237,012,256,20,5,jesica,Experiment_EEG_version,20,
Living_Things,../experiment_stimuli/bw_bc_bl/Living_Things/Birds/rooster_17.jpg,Birds,0,rooster,0,49,49,70,318.832401513,V_nV,1,318.83732168,320.115084455,1,1,0.290854752064,320.426496228,1,1,0.170604797546,5,6.0,32,bw,99.7868229621,2019_jun_14_1237,012,256,20,5,jesica,Experiment_EEG_version,20,
Living_Things,../experiment_stimuli/bw_bc_bl/Living_Things/Birds/goose_15.jpg,Birds,0,goose,0,50,50,34,322.32999817,nV_V,2,322.334772121,323.632729893,1,2,0.93225550605,324.585532649,3,0,0.310895596165,5,6.5,32,bw,99.7868229621,2019_jun_14_1237,012,256,20,5,jesica,Experiment_EEG_version,20,
Nonliving_Things,../experiment_stimuli/bw_bc_bl/Nonliving_Things/Buildings/cathedral_6.jpg,Buildings,0,cathedral,0,51,51,14,326.629343067,nV_V,1,326.634171095,327.912032163,1,1,5.62244742922,333.555059444,1,1,0.671686910558,5,7.0,32,bw,99.7868229621,2019_jun_14_1237,012,256,20,5,jesica,Experiment_EEG_version,20,
Nonliving_Things,../experiment_stimuli/bw_bc_bl/Nonliving_Things/Vehicles/plane_9.jpg,Vehicles,0,plane,0,52,52,64,335.959628522,nV_V,1,335.964486686,337.272385315,1,1,2.58624336682,339.879177208,1,1,0.300876645837,5,6.0,32,bw,99.7868229621,2019_jun_14_1237,012,256,20,5,jesica,Experiment_EEG_version,20,
Living_Things,../experiment_stimuli/bw_bc_bl/Living_Things/Marine_creatures/dolphin_2.jpg,Marine_creatures,0,dolphin,0,53,53,23,341.912569082,nV_V,2,341.918522704,343.225324895,0,1,0.310904765502,343.556789313,1,1,0.200657772832,5,6.5,32,bw,99.7868229621,2019_jun_14_1237,012,256,20,5,jesica,Experiment_EEG_version,20,
Living_Things,../experiment_stimuli/bw_bc_bl/Living_Things/Birds/pelican_0.jpg,Birds,0,pelican,0,54,54,60,345.490353396,nV_V,2,345.4963859,346.82314894,0,1,4.91090711951,351.754628148,1,1,0.190626868047,5,6.0,32,bw,99.7868229621,2019_jun_14_1237,012,256,20,5,jesica,Experiment_EEG_version,20,
Nonliving_Things,../experiment_stimuli/bw_bc_bl/Nonliving_Things/Furniture/lectern_20.jpg,Furniture,0,lectern,0,55,55,47,353.678160957,nV_V,1,353.683106507,355.030992274,1,1,0.67168580927,355.723231695,3,0,0.22069807956,5,6.5,32,bw,99.7868229621,2019_jun_14_1237,012,256,20,5,jesica,Experiment_EEG_version,20,
Living_Things,../experiment_stimuli/bw_bc_bl/Living_Things/Birds/magpie_26.jpg,Birds,0,magpie,0,56,56,51,357.676851562,nV_V,2,357.681778157,359.009644696,0,1,0.26079814462,359.291012482,1,1,0.210681456607,5,6.0,32,bw,99.7868229621,2019_jun_14_1237,012,256,20,5,jesica,Experiment_EEG_version,20,
Nonliving_Things,../experiment_stimuli/bw_bc_bl/Nonliving_Things/Furniture/sofa_21.jpg,Furniture,0,sofa,0,57,57,78,361.234591444,nV_V,1,361.239488766,362.57739833,1,1,0.461063532159,363.059012293,3,0,0.180609545205,5,6.0,32,bw,99.7868229621,2019_jun_14_1237,012,256,20,5,jesica,Experiment_EEG_version,20,
Living_Things,../experiment_stimuli/bw_bc_bl/Living_Things/Animals/hippopotamus_5.jpg,Animals,0,hippopotamus,0,58,58,39,364.972706274,nV_V,2,364.977730465,366.285463868,1,2,1.32310326165,367.629129519,3,0,0.200647198129,5,6.0,32,bw,99.7868229621,2019_jun_14_1237,012,256,20,5,jesica,Experiment_EEG_version,20,
Living_Things,../experiment_stimuli/bw_bc_bl/Living_Things/Animals/lynx_3.jpg,Animals,0,lynx,0,59,59,50,369.562684474,V_nV,1,369.567634227,370.85540669,1,1,5.55229729461,376.428274479,1,1,0.210690809414,5,6.5,32,bw,99.7868229621,2019_jun_14_1237,012,256,20,5,jesica,Experiment_EEG_version,20,
Nonliving_Things,../experiment_stimuli/bw_bc_bl/Nonliving_Things/Buildings/house_5.jpg,Buildings,0,house,0,60,60,41,378.37183707,nV_V,1,378.376688023,379.674570563,1,1,0.791968856938,380.487095332,2,0,0.280825895257,5,6.0,32,bw,99.7868229621,2019_jun_14_1237,012,256,20,5,jesica,Experiment_EEG_version,20,
Living_Things,../experiment_stimuli/bw_bc_bl/Living_Things/Marine_creatures/narwhal_19.jpg,Marine_creatures,0,narwhal,0,61,61,55,382.500815561,nV_V,2,382.505769223,383.793531156,1,2,0.711774365976,384.525878288,3,0,0.381051441655,5,6.0,32,bw,99.7868229621,2019_jun_14_1237,012,256,20,5,jesica,Experiment_EEG_version,20,
Living_Things,../experiment_stimuli/bw_bc_bl/Living_Things/Birds/hummingbird_17.jpg,Birds,0,hummingbird,0,62,62,42,386.639813911,V_nV,1,386.644704789,387.912483742,1,1,7.9675525506,395.900617846,1,1,0.19069679128,5,6.5,32,bw,99.7868229621,2019_jun_14_1237,012,256,20,5,jesica,Experiment_EEG_version,20,
Nonliving_Things,../experiment_stimuli/bw_bc_bl/Nonliving_Things/Furniture/lamp_12.jpg,Furniture,0,lamp,0,63,63,46,397.824125905,nV_V,1,397.828999722,399.126863172,1,1,0.561448248569,399.708863028,3,0,0.170587263536,5,6.0,32,bw,99.7868229621,2019_jun_14_1237,012,256,20,5,jesica,Experiment_EEG_version,20,
Living_Things,../experiment_stimuli/bw_bc_bl/Living_Things/Animals/zebra_9.jpg,Animals,0,zebra,0,64,64,95,401.612368812,nV_V,2,401.617326321,402.875014794,0,1,0.270819437224,403.166380703,1,1,0.180610533804,5,7.5,32,bw,99.7868229621,2019_jun_14_1237,012,256,20,5,jesica,Experiment_EEG_version,20,
Nonliving_Things,../experiment_stimuli/bw_bc_bl/Nonliving_Things/Vehicles/van_2.jpg,Vehicles,0,van,0,65,65,91,405.079904096,V_nV,2,405.086349782,406.372613879,1,2,2.18497233978,408.588182848,3,0,0.401093939785,5,7.5,32,bw,99.7868229621,2019_jun_14_1237,012,256,20,5,jesica,Experiment_EEG_version,20,
Living_Things,../experiment_stimuli/bw_bc_bl/Living_Things/Insects/dragonfly_5.jpg,Insects,0,dragonfly,0,66,66,24,410.722169812,nV_V,2,410.727205902,411.984825809,1,2,0.832033471204,412.837413233,1,1,0.350987292826,5,6.0,32,bw,99.7868229621,2019_jun_14_1237,012,256,20,5,jesica,Experiment_EEG_version,20,
Nonliving_Things,../experiment_stimuli/bw_bc_bl/Nonliving_Things/Kitchen_Uten/fondue_10.jpg,Kitchen_Uten,0,fondue,0,67,67,30,414.921299998,V_nV,2,414.926167266,416.203991459,0,1,3.23726691911,419.461828162,1,1,0.200503910426,5,6.0,32,bw,99.7868229621,2019_jun_14_1237,012,256,20,5,jesica,Experiment_EEG_version,20,
Living_Things,../experiment_stimuli/bw_bc_bl/Living_Things/Animals/tapir_11.jpg,Animals,0,tapir,0,68,68,82,421.395378637,V_nV,1,421.403017053,422.678070146,1,1,1.34298478533,424.041603799,2,0,0.401108857244,5,7.0,32,bw,99.7868229621,2019_jun_14_1237,012,256,20,5,jesica,Experiment_EEG_version,20,
Living_Things,../experiment_stimuli/bw_bc_bl/Living_Things/Animals/cat_7.jpg,Animals,0,cat,0,69,69,13,426.175768791,V_nV,1,426.180743088,427.448441417,1,1,0.320923449006,427.789908877,1,1,0.210675513372,5,6.0,32,bw,99.7868229621,2019_jun_14_1237,012,256,20,5,jesica,Experiment_EEG_version,20,
Nonliving_Things,../experiment_stimuli/bw_bc_bl/Nonliving_Things/Vehicles/boat_15.jpg,Vehicles,0,boat,0,70,70,7,429.733504722,nV_V,1,429.739668209,431.026217648,1,1,6.14358711196,437.190355312,1,1,0.230723474175,5,8.0,32,bw,99.7868229621,2019_jun_14_1237,012,256,20,5,jesica,Experiment_EEG_version,20,
Nonliving_Things,../experiment_stimuli/bw_bc_bl/Nonliving_Things/Furniture/bookcase_10.jpg,Furniture,0,bookcase,0,71,71,8,439.153986569,nV_V,1,439.159006809,440.446699736,1,1,0.541404625867,441.008666928,3,0,0.180611586664,5,6.0,32,bw,99.7868229621,2019_jun_14_1237,012,256,20,5,jesica,Experiment_EEG_version,20,
Nonliving_Things,../experiment_stimuli/bw_bc_bl/Nonliving_Things/Vehicles/car_16.jpg,Vehicles,0,car,0,72,72,11,442.922174239,V_nV,2,442.927256892,444.194845106,1,2,0.69174184138,444.907137067,3,0,0.200669126119,5,6.0,32,bw,99.7868229621,2019_jun_14_1237,012,256,20,5,jesica,Experiment_EEG_version,20,
Nonliving_Things,../experiment_stimuli/bw_bc_bl/Nonliving_Things/Tools/axe_23.jpg,Tools,0,axe,0,73,73,3,446.840696202,nV_V,1,446.845654834,448.07328929,1,1,3.39762010053,451.491461889,1,1,0.210678667296,5,6.5,32,bw,99.7868229621,2019_jun_14_1237,012,256,20,5,jesica,Experiment_EEG_version,20,
Living_Things,../experiment_stimuli/bw_bc_bl/Living_Things/Insects/butterfly_10.jpg,Insects,0,butterfly,0,74,74,10,453.435045765,V_nV,1,453.441431215,454.687658938,1,1,0.0302880774252,454.738507676,1,1,0.260788200889,5,7.5,32,bw,99.7868229621,2019_jun_14_1237,012,256,20,5,jesica,Experiment_EEG_version,20,
Living_Things,../experiment_stimuli/bw_bc_bl/Living_Things/Animals/cow_23.jpg,Animals,0,cow,0,75,75,20,456.732222642,nV_V,2,456.737287491,458.00487478,1,2,0.952298576012,458.977740167,2,0,0.21067733597,5,6.0,32,bw,99.7868229621,2019_jun_14_1237,012,256,20,5,jesica,Experiment_EEG_version,20,
Living_Things,../experiment_stimuli/bw_bc_bl/Living_Things/Marine_creatures/whale_11.jpg,Marine_creatures,0,whale,0,76,76,94,460.921308325,V_nV,1,460.926303355,462.183968542,1,1,0.631598710548,462.836142555,2,0,0.240743074566,5,6.0,32,bw,99.7868229621,2019_jun_14_1237,012,256,20,5,jesica,Experiment_EEG_version,20,
Living_Things,../experiment_stimuli/bw_bc_bl/Living_Things/Birds/goldfinch_18.jpg,Birds,0,goldfinch,0,77,77,33,464.809779177,nV_V,2,464.814780384,466.062392362,0,1,0.160424574744,466.243361762,1,1,0.190645457711,5,6.0,32,bw,99.7868229621,2019_jun_14_1237,012,256,20,5,jesica,Experiment_EEG_version,20,
Nonliving_Things,../experiment_stimuli/bw_bc_bl/Nonliving_Things/Furniture/rocking-chair_19.jpg,Furniture,0,rocking-chair,0,78,78,69,468.167083257,nV_V,1,468.17209502,469.43972964,1,1,12.1065499317,481.566839104,1,1,0.180630160961,5,6.5,32,bw,99.7868229621,2019_jun_14_1237,012,256,20,5,jesica,Experiment_EEG_version,20,
Living_Things,../experiment_stimuli/bw_bc_bl/Living_Things/Marine_creatures/manatee_19.jpg,Marine_creatures,0,manatee,0,79,79,52,483.480365865,nV_V,2,483.48683072,484.783087182,1,2,0.641634758096,485.445270721,3,0,0.190637995489,5,6.0,32,bw,99.7868229621,2019_jun_14_1237,012,256,20,5,jesica,Experiment_EEG_version,20,
Living_Things,../experiment_stimuli/bw_bc_bl/Living_Things/Marine_creatures/sperm-whale_18.jpg,Marine_creatures,0,sperm-whale,0,80,80,80,487.368811744,V_nV,1,487.373741978,488.641478367,1,1,1.1527303406,489.814756763,3,0,0.23072275985,5,7.0,32,bw,99.7868229621,2019_jun_14_1237,012,256,20,5,jesica,Experiment_EEG_version,20,
Nonliving_Things,../experiment_stimuli/bw_bc_bl/Nonliving_Things/Buildings/mill_21.jpg,Buildings,0,mill,0,81,81,53,491.778400291,nV_V,1,491.78348973,493.02100957,1,1,14.9326925469,507.974268365,1,1,0.200655220076,5,6.0,32,bw,99.7868229621,2019_jun_14_1237,012,256,20,5,jesica,Experiment_EEG_version,20,
Living_Things,../experiment_stimuli/bw_bc_bl/Living_Things/Animals/horse_16.jpg,Animals,0,horse,0,82,82,40,509.907814673,V_nV,1,509.914328249,511.180497364,1,1,1.33312541898,512.534150819,3,0,0.350989871658,5,6.5,32,bw,99.7868229621,2019_jun_14_1237,012,256,20,5,jesica,Experiment_EEG_version,20,
Nonliving_Things,../experiment_stimuli/bw_bc_bl/Nonliving_Things/Kitchen_Uten/frying-pan_25.jpg,Kitchen_Uten,0,frying-pan,0,83,83,31,514.618056542,nV_V,1,514.623002258,515.860655506,1,1,0.601569272112,516.482774006,2,0,0.300871221349,5,6.0,32,bw,99.7868229621,2019_jun_14_1237,012,256,20,5,jesica,Experiment_EEG_version,20,
Nonliving_Things,../experiment_stimuli/bw_bc_bl/Nonliving_Things/Musical_Inst/trumpet_4.jpg,Musical_Inst,0,trumpet,0,84,84,88,518.516533056,nV_V,1,518.52167917,519.749109359,1,1,6.23377853492,526.003454174,1,1,0.210677024443,5,6.0,32,bw,99.7868229621,2019_jun_14_1237,012,256,20,5,jesica,Experiment_EEG_version,20,
Nonliving_Things,../experiment_stimuli/bw_bc_bl/Nonliving_Things/Musical_Inst/guitar_15.jpg,Musical_Inst,0,guitar,0,85,85,36,527.94703038,V_nV,2,527.951990434,529.209679591,0,1,0.180607285351,529.410851729,1,1,1.15273816744,5,6.5,32,bw,99.7868229621,2019_jun_14_1237,012,256,20,5,jesica,Experiment_EEG_version,20,
Nonliving_Things,../experiment_stimuli/bw_bc_bl/Nonliving_Things/Buildings/palace_8.jpg,Buildings,0,palace,0,86,86,58,532.296492063,V_nV,2,532.301617956,533.579177724,1,2,0.481272472534,534.081054036,1,1,0.18061925564,5,6.0,32,bw,99.7868229621,2019_jun_14_1237,012,256,20,5,jesica,Experiment_EEG_version,20,
Nonliving_Things,../experiment_stimuli/bw_bc_bl/Nonliving_Things/Vehicles/motorbike_26.jpg,Vehicles,0,motorbike,0,87,87,54,535.994531613,V_nV,2,535.999561947,537.307282861,0,1,0.170587651432,537.498447229,3,0,1.92441433063,5,6.5,32,bw,99.7868229621,2019_jun_14_1237,012,256,20,5,jesica,Experiment_EEG_version,20,
Nonliving_Things,../experiment_stimuli/bw_bc_bl/Nonliving_Things/Vehicles/ship_4.jpg,Vehicles,0,ship,0,88,88,76,541.155753464,V_nV,2,541.160811993,542.43843977,0,1,14.6821497218,557.141143382,1,1,0.250772051048,5,6.5,32,bw,99.7868229621,2019_jun_14_1237,012,256,20,5,jesica,Experiment_EEG_version,20,
Nonliving_Things,../experiment_stimuli/bw_bc_bl/Nonliving_Things/Furniture/bedside-table_12.jpg,Furniture,0,bedside-table,0,89,89,6,559.124816728,nV_V,1,559.129947159,560.417529264,1,1,0.481270299759,560.919355813,2,0,0.200649987441,5,6.5,32,bw,99.7868229621,2019_jun_14_1237,012,256,20,5,jesica,Experiment_EEG_version,20,
Nonliving_Things,../experiment_stimuli/bw_bc_bl/Nonliving_Things/Musical_Inst/drum_19.jpg,Musical_Inst,0,drum,0,90,90,25,562.852926047,V_nV,2,562.859574275,564.135612139,1,2,0.591531952843,564.747706207,1,1,0.220714293886,5,6.5,32,bw,99.7868229621,2019_jun_14_1237,012,256,20,5,jesica,Experiment_EEG_version,20,
Living_Things,../experiment_stimuli/bw_bc_bl/Living_Things/Birds/partridge_25.jpg,Birds,0,partridge,0,91,91,59,566.701285635,nV_V,2,566.706430622,568.004024778,0,1,1.1126587796,569.137261967,3,0,0.471233424265,5,6.0,32,bw,99.7868229621,2019_jun_14_1237,012,256,20,5,jesica,Experiment_EEG_version,20,
Living_Things,../experiment_stimuli/bw_bc_bl/Living_Things/Marine_creatures/crab_26.jpg,Marine_creatures,0,crab,0,92,92,21,571.35140311,nV_V,2,571.358133044,572.634090556,0,1,2.53574306425,575.190412731,1,1,0.200658991002,5,6.0,32,bw,99.7868229621,2019_jun_14_1237,012,256,20,5,jesica,Experiment_EEG_version,20,
Nonliving_Things,../experiment_stimuli/bw_bc_bl/Nonliving_Things/Buildings/granary_20.jpg,Buildings,0,granary,0,93,93,35,577.123949814,V_nV,2,577.129155969,578.436703502,0,1,0.150566741824,578.607828837,1,1,2.15490801074,5,6.0,32,bw,99.7868229621,2019_jun_14_1237,012,256,20,5,jesica,Experiment_EEG_version,20,
Living_Things,../experiment_stimuli/bw_bc_bl/Living_Things/Animals/cheetah_0.jpg,Animals,0,cheetah,0,94,94,16,582.505650684,V_nV,1,582.512562382,583.838454239,0,2,10.4830170176,594.342038094,2,0,0.200653378852,5,7.0,32,bw,99.7868229621,2019_jun_14_1237,012,256,20,5,jesica,Experiment_EEG_version,20,
Living_Things,../experiment_stimuli/bw_bc_bl/Living_Things/Animals/turtle_4.jpg,Animals,0,turtle,0,95,95,90,596.275598782,nV_V,2,596.280611695,597.608387657,1,2,0.811993514188,598.440936617,3,0,0.200651156716,5,6.0,32,bw,99.7868229621,2019_jun_14_1237,012,256,20,5,jesica,Experiment_EEG_version,20,
