category,probe_path,subcategory,fixation_duration,label,trials.thisRepN,trials.thisTrialN,trials.thisN,trials.thisIndex,image_onset_time,response_window,correctAns,probe_onset,discrim_resptime,response.corr,response.keys,response.rt,visible_resptime,visible.keys,visible.corr,visible.rt,probeFrames,jitter2,n_square,experiment_color,frameRate,date,session,image_size,premask_dur,probeFrames,participant,expName,postmask_dur,
Nonliving_Things,../experiment_stimuli/bw_bc_bl/Nonliving_Things/Vehicles/ship_21.jpg,Vehicles,0,ship,0,0,0,76,3.72040209407,nV_V,1,3.74173682975,5.00310558453,1,1,0.411119834054,5.44504449982,1,1,0.551420053933,5,6.0,32,bw,99.7822452788,2019_jun_14_1307,015,256,20,5,jesica,Experiment_EEG_version,20,
Living_Things,../experiment_stimuli/bw_bc_bl/Living_Things/Animals/lynx_16.jpg,Animals,0,lynx,0,1,1,50,7.72912166407,V_nV,1,7.73403939465,9.01180648943,1,1,0.771902001929,9.80428147502,2,0,0.852077018935,5,6.0,32,bw,99.7822452788,2019_jun_14_1307,015,256,20,5,jesica,Experiment_EEG_version,20,
Living_Things,../experiment_stimuli/bw_bc_bl/Living_Things/Marine_creatures/lobster_25.jpg,Marine_creatures,0,lobster,0,2,2,49,12.3892507437,nV_V,2,12.3942962317,13.6619167915,1,2,0.661669662688,14.3441416337,2,0,0.310889964923,5,6.5,32,bw,99.7822452788,2019_jun_14_1307,015,256,20,5,jesica,Experiment_EEG_version,20,
Nonliving_Things,../experiment_stimuli/bw_bc_bl/Nonliving_Things/Kitchen_Uten/cup_0.jpg,Kitchen_Uten,0,cup,0,3,3,22,16.3879388259,V_nV,2,16.3932040292,17.6505896864,1,2,0.601535983384,18.2726663863,2,0,0.401094541419,5,7.0,32,bw,99.7822452788,2019_jun_14_1307,015,256,20,5,jesica,Experiment_EEG_version,20,
Living_Things,../experiment_stimuli/bw_bc_bl/Living_Things/Animals/cheetah_5.jpg,Animals,0,cheetah,0,4,4,16,20.406675091,V_nV,1,20.4116463284,21.6593176736,1,1,0.902191015426,22.5820427747,1,1,0.230724304914,5,6.0,32,bw,99.7822452788,2019_jun_14_1307,015,256,20,5,jesica,Experiment_EEG_version,20,
Nonliving_Things,../experiment_stimuli/bw_bc_bl/Nonliving_Things/Buildings/cathedral_20.jpg,Buildings,0,cathedral,0,5,5,14,24.5456761527,nV_V,1,24.5506175142,25.8183429339,1,1,0.711775719654,26.5506712198,1,1,0.320918069221,5,7.0,32,bw,99.7822452788,2019_jun_14_1307,015,256,20,5,jesica,Experiment_EEG_version,20,
Nonliving_Things,../experiment_stimuli/bw_bc_bl/Nonliving_Things/Kitchen_Uten/coking-pot_5.jpg,Kitchen_Uten,0,coking-pot,0,6,6,18,28.6045027869,nV_V,1,28.6097705658,29.907231566,1,1,0.99238990061,30.9201785251,2,0,0.280838225968,5,6.0,32,bw,99.7822452788,2019_jun_14_1307,015,256,20,5,jesica,Experiment_EEG_version,20,
Living_Things,../experiment_stimuli/bw_bc_bl/Living_Things/Birds/pelican_5.jpg,Birds,0,pelican,0,7,7,60,32.9339147345,V_nV,1,32.9399104235,34.2266194127,1,1,0.862108717207,35.1092775459,2,0,0.230756469537,5,6.0,32,bw,99.7822452788,2019_jun_14_1307,015,256,20,5,jesica,Experiment_EEG_version,20,
Living_Things,../experiment_stimuli/bw_bc_bl/Living_Things/Birds/goldfinch_24.jpg,Birds,0,goldfinch,0,8,8,33,37.0729065817,V_nV,1,37.0777147165,38.3556019678,1,1,2.5055154101,40.8816538732,1,1,0.260800163727,5,6.5,32,bw,99.7822452788,2019_jun_14_1307,015,256,20,5,jesica,Experiment_EEG_version,20,
Living_Things,../experiment_stimuli/bw_bc_bl/Living_Things/Birds/partridge_9.jpg,Birds,0,partridge,0,9,9,59,42.8755251034,V_nV,1,42.880436263,44.1682300111,1,1,0.691748315468,44.880539611,2,0,0.381055046804,5,6.5,32,bw,99.7822452788,2019_jun_14_1307,015,256,20,5,jesica,Experiment_EEG_version,20,
Nonliving_Things,../experiment_stimuli/bw_bc_bl/Nonliving_Things/Musical_Inst/tuba_13.jpg,Musical_Inst,0,tuba,0,10,10,89,46.9944751328,nV_V,1,46.9994376972,48.2771617328,1,1,0.671684617177,48.9694110327,3,0,0.431157125626,5,8.0,32,bw,99.7822452788,2019_jun_14_1307,015,256,20,5,jesica,Experiment_EEG_version,20,
Nonliving_Things,../experiment_stimuli/bw_bc_bl/Nonliving_Things/Kitchen_Uten/fondue_13.jpg,Kitchen_Uten,0,fondue,0,11,11,30,51.1334767318,V_nV,2,51.138310648,52.3961202996,0,1,0.19066176936,52.6073369249,1,1,0.230747082271,5,6.5,32,bw,99.7822452788,2019_jun_14_1307,015,256,20,5,jesica,Experiment_EEG_version,20,
Living_Things,../experiment_stimuli/bw_bc_bl/Living_Things/Marine_creatures/pomfret_18.jpg,Marine_creatures,0,pomfret,0,12,12,65,54.5709454422,V_nV,1,54.5757266898,55.8636593986,1,1,0.822015216574,56.7062102417,1,1,0.290868804324,5,7.0,32,bw,99.7822452788,2019_jun_14_1307,015,256,20,5,jesica,Experiment_EEG_version,20,
Nonliving_Things,../experiment_stimuli/bw_bc_bl/Nonliving_Things/Buildings/palace_19.jpg,Buildings,0,palace,0,13,13,58,58.7299906793,V_nV,2,58.7354511237,60.0427408335,0,1,0.270816256758,60.3341302918,1,1,0.23056701012,5,6.0,32,bw,99.7822452788,2019_jun_14_1307,015,256,20,5,jesica,Experiment_EEG_version,20,
Nonliving_Things,../experiment_stimuli/bw_bc_bl/Nonliving_Things/Kitchen_Uten/small-saucepan_15.jpg,Kitchen_Uten,0,small-saucepan,0,14,14,77,62.297743557,V_nV,2,62.3032642342,63.6205208572,1,2,1.19281727774,64.8338955063,2,0,0.190637570806,5,6.5,32,bw,99.7822452788,2019_jun_14_1307,015,256,20,5,jesica,Experiment_EEG_version,20,
Nonliving_Things,../experiment_stimuli/bw_bc_bl/Nonliving_Things/Furniture/table_6.jpg,Furniture,0,table,0,15,15,81,66.7574474844,V_nV,2,66.7622824456,68.0701935599,1,2,0.601531633642,68.7023036387,3,0,0.220705549698,5,6.5,32,bw,99.7822452788,2019_jun_14_1307,015,256,20,5,jesica,Experiment_EEG_version,20,
Nonliving_Things,../experiment_stimuli/bw_bc_bl/Nonliving_Things/Musical_Inst/guitar_23.jpg,Musical_Inst,0,guitar,0,16,16,36,70.655914607,V_nV,2,70.6607638351,71.9386008312,1,2,0.621586695313,72.5807422553,3,0,0.180612627417,5,7.5,32,bw,99.7822452788,2019_jun_14_1307,015,256,20,5,jesica,Experiment_EEG_version,20,
Living_Things,../experiment_stimuli/bw_bc_bl/Living_Things/Birds/ostrich_17.jpg,Birds,0,ostrich,0,17,17,56,74.4942581402,nV_V,2,74.4991422961,75.7569067264,0,1,0.270832357928,76.0482902448,1,1,0.200669238809,5,6.5,32,bw,99.7822452788,2019_jun_14_1307,015,256,20,5,jesica,Experiment_EEG_version,20,
Nonliving_Things,../experiment_stimuli/bw_bc_bl/Nonliving_Things/Furniture/bed_19.jpg,Furniture,0,bed,0,18,18,5,77.9818418734,V_nV,2,77.9866769621,79.2645297023,1,2,2.41548292525,81.7005647318,2,0,0.230739022605,5,6.5,32,bw,99.7822452788,2019_jun_14_1307,015,256,20,5,jesica,Experiment_EEG_version,20,
Nonliving_Things,../experiment_stimuli/bw_bc_bl/Nonliving_Things/Buildings/house_8.jpg,Buildings,0,house,0,19,19,41,83.6642015534,nV_V,1,83.6704100547,84.9368591164,1,1,0.671687169932,85.629102007,2,0,0.150547411758,5,6.0,32,bw,99.7822452788,2019_jun_14_1307,015,256,20,5,jesica,Experiment_EEG_version,20,
Nonliving_Things,../experiment_stimuli/bw_bc_bl/Nonliving_Things/Buildings/granary_11.jpg,Buildings,0,granary,0,20,20,35,87.5125585026,nV_V,1,87.5177246137,88.7752033146,1,1,0.56146369921,89.3572235769,2,0,0.210681347176,5,6.0,32,bw,99.7822452788,2019_jun_14_1307,015,256,20,5,jesica,Experiment_EEG_version,20,
Nonliving_Things,../experiment_stimuli/bw_bc_bl/Nonliving_Things/Tools/axe_5.jpg,Tools,0,axe,0,21,21,3,91.3008048926,nV_V,1,91.3057024502,92.5534254941,1,1,0.691737732384,93.2657124284,1,1,0.200677749701,5,7.0,32,bw,99.7822452788,2019_jun_14_1307,015,256,20,5,jesica,Experiment_EEG_version,20,
Nonliving_Things,../experiment_stimuli/bw_bc_bl/Nonliving_Things/Kitchen_Uten/saucepan_2.jpg,Kitchen_Uten,0,saucepan,0,22,22,71,95.1992740566,V_nV,2,95.2056736383,96.4619137254,1,2,0.631598093547,97.1140728858,3,0,0.240761397872,5,6.5,32,bw,99.7822452788,2019_jun_14_1307,015,256,20,5,jesica,Experiment_EEG_version,20,
Living_Things,../experiment_stimuli/bw_bc_bl/Living_Things/Marine_creatures/killer-whale_1.jpg,Marine_creatures,0,killer-whale,0,23,23,43,99.0877262023,nV_V,2,99.0942725791,100.320312475,0,1,0.751874833368,101.092748397,1,1,0.260793904308,5,7.5,32,bw,99.7822452788,2019_jun_14_1307,015,256,20,5,jesica,Experiment_EEG_version,20,
Living_Things,../experiment_stimuli/bw_bc_bl/Living_Things/Insects/scorpion_3.jpg,Insects,0,scorpion,0,24,24,73,103.086417927,nV_V,2,103.091374511,104.349071476,0,1,0.61157157179,104.981216382,1,1,0.20065896865,5,8.0,32,bw,99.7822452788,2019_jun_14_1307,015,256,20,5,jesica,Experiment_EEG_version,20,
Living_Things,../experiment_stimuli/bw_bc_bl/Living_Things/Birds/seagull_9.jpg,Birds,0,seagull,0,25,25,74,106.914740819,V_nV,1,106.921167189,108.207452455,1,1,0.80196724413,109.04001225,2,0,0.160564219579,5,6.5,32,bw,99.7822452788,2019_jun_14_1307,015,256,20,5,jesica,Experiment_EEG_version,20,
Nonliving_Things,../experiment_stimuli/bw_bc_bl/Nonliving_Things/Musical_Inst/drum_24.jpg,Musical_Inst,0,drum,0,26,26,25,110.933475392,V_nV,2,110.939121578,112.216163785,1,2,0.801964627579,113.048729181,2,0,0.230722834356,5,6.5,32,bw,99.7822452788,2019_jun_14_1307,015,256,20,5,jesica,Experiment_EEG_version,20,
Living_Things,../experiment_stimuli/bw_bc_bl/Living_Things/Marine_creatures/dolphin_5.jpg,Marine_creatures,0,dolphin,0,27,27,23,115.012344671,nV_V,2,115.017256045,116.285021742,0,1,0.190648984164,116.496208285,1,1,0.200655246619,5,6.0,32,bw,99.7822452788,2019_jun_14_1307,015,256,20,5,jesica,Experiment_EEG_version,20,
Living_Things,../experiment_stimuli/bw_bc_bl/Living_Things/Birds/kiwi_0.jpg,Birds,0,kiwi,0,28,28,44,118.429778308,V_nV,1,118.434669937,119.732505422,0,2,0.822018317413,120.575087042,1,1,0.190644765738,5,6.5,32,bw,99.7822452788,2019_jun_14_1307,015,256,20,5,jesica,Experiment_EEG_version,20,
Living_Things,../experiment_stimuli/bw_bc_bl/Living_Things/Birds/hen_17.jpg,Birds,0,hen,0,29,29,38,122.498617288,nV_V,2,122.505197596,123.811370912,1,2,1.68389945896,125.515829885,2,0,0.230724962428,5,6.5,32,bw,99.7822452788,2019_jun_14_1307,015,256,20,5,jesica,Experiment_EEG_version,20,
Living_Things,../experiment_stimuli/bw_bc_bl/Living_Things/Birds/rooster_4.jpg,Birds,0,rooster,0,30,30,70,127.479463248,V_nV,1,127.484416993,128.782178376,1,1,0.651655171067,129.454388738,2,0,0.180623897817,5,7.5,32,bw,99.7822452788,2019_jun_14_1307,015,256,20,5,jesica,Experiment_EEG_version,20,
Nonliving_Things,../experiment_stimuli/bw_bc_bl/Nonliving_Things/Kitchen_Uten/teapot_5.jpg,Kitchen_Uten,0,teapot,0,31,31,83,131.367896134,V_nV,2,131.372834045,132.660611926,1,2,1.95448213676,134.63564679,3,0,0.220696486067,5,7.0,32,bw,99.7822452788,2019_jun_14_1307,015,256,20,5,jesica,Experiment_EEG_version,20,
Nonliving_Things,../experiment_stimuli/bw_bc_bl/Nonliving_Things/Furniture/wardrobe_1.jpg,Furniture,0,wardrobe,0,32,32,93,136.589259639,V_nV,2,136.59409813,137.861917957,1,2,3.918586188,141.801076058,2,0,0.33093730174,5,7.5,32,bw,99.7822452788,2019_jun_14_1307,015,256,20,5,jesica,Experiment_EEG_version,20,
Living_Things,../experiment_stimuli/bw_bc_bl/Living_Things/Animals/armadillo_4.jpg,Animals,0,armadillo,0,33,33,1,143.865071491,V_nV,1,143.869879674,145.127713216,0,2,0.511346255895,145.659629745,1,1,0.150560084265,5,6.0,32,bw,99.7822452788,2019_jun_14_1307,015,256,20,5,jesica,Experiment_EEG_version,20,
Living_Things,../experiment_stimuli/bw_bc_bl/Living_Things/Marine_creatures/crab_3.jpg,Marine_creatures,0,crab,0,34,34,21,147.543064124,nV_V,2,147.548224111,148.815733826,1,2,0.791949680541,149.628233758,2,0,0.350988871884,5,6.0,32,bw,99.7822452788,2019_jun_14_1307,015,256,20,5,jesica,Experiment_EEG_version,20,
Living_Things,../experiment_stimuli/bw_bc_bl/Living_Things/Animals/tapir_10.jpg,Animals,0,tapir,0,35,35,82,151.71212627,V_nV,1,151.719223086,152.974788612,1,1,0.611560779158,153.606876496,2,0,0.170588041656,5,8.0,32,bw,99.7822452788,2019_jun_14_1307,015,256,20,5,jesica,Experiment_EEG_version,20,
Living_Things,../experiment_stimuli/bw_bc_bl/Living_Things/Birds/duck_4.jpg,Birds,0,duck,0,36,36,26,155.510387411,nV_V,2,155.515393708,156.763009923,0,1,0.561448327266,157.345024926,1,1,0.240745684132,5,7.0,32,bw,99.7822452788,2019_jun_14_1307,015,256,20,5,jesica,Experiment_EEG_version,20,
Living_Things,../experiment_stimuli/bw_bc_bl/Living_Things/Animals/cat_3.jpg,Animals,0,cat,0,37,37,13,159.318666559,nV_V,2,159.323558767,160.601360997,0,1,0.781929951627,161.40383797,1,1,0.180612334516,5,6.0,32,bw,99.7822452788,2019_jun_14_1307,015,256,20,5,jesica,Experiment_EEG_version,20,
Nonliving_Things,../experiment_stimuli/bw_bc_bl/Nonliving_Things/Musical_Inst/violin_26.jpg,Musical_Inst,0,violin,0,38,38,92,163.317375164,nV_V,1,163.322341048,164.620089601,1,1,0.681712150574,165.322363441,3,0,0.140542054549,5,8.0,32,bw,99.7822452788,2019_jun_14_1307,015,256,20,5,jesica,Experiment_EEG_version,20,
Nonliving_Things,../experiment_stimuli/bw_bc_bl/Nonliving_Things/Buildings/mill_23.jpg,Buildings,0,mill,0,39,39,53,167.195791668,nV_V,1,167.202760448,168.478481358,1,1,0.300888521597,168.799929051,1,1,0.160591534339,5,6.0,32,bw,99.7822452788,2019_jun_14_1307,015,256,20,5,jesica,Experiment_EEG_version,20,
Living_Things,../experiment_stimuli/bw_bc_bl/Living_Things/Birds/magpie_2.jpg,Birds,0,magpie,0,40,40,51,170.693399734,nV_V,2,170.698263064,171.986108055,1,2,0.551427309401,172.558081849,2,0,0.17059347406,5,6.0,32,bw,99.7822452788,2019_jun_14_1307,015,256,20,5,jesica,Experiment_EEG_version,20,
Nonliving_Things,../experiment_stimuli/bw_bc_bl/Nonliving_Things/Vehicles/car_5.jpg,Vehicles,0,car,0,41,41,11,174.461592561,V_nV,2,174.466437068,175.744274898,1,2,0.69157582894,176.456395959,3,0,0.150544167031,5,6.5,32,bw,99.7822452788,2019_jun_14_1307,015,256,20,5,jesica,Experiment_EEG_version,20,
Nonliving_Things,../experiment_stimuli/bw_bc_bl/Nonliving_Things/Kitchen_Uten/pot_18.jpg,Kitchen_Uten,0,pot,0,42,42,66,178.340022047,nV_V,1,178.344954927,179.602663851,1,1,0.250771930907,179.873997239,1,1,0.180615349673,5,6.5,32,bw,99.7822452788,2019_jun_14_1307,015,256,20,5,jesica,Experiment_EEG_version,20,
Living_Things,../experiment_stimuli/bw_bc_bl/Living_Things/Animals/turtle_17.jpg,Animals,0,turtle,0,43,43,90,181.787529767,V_nV,1,181.793490889,183.08022346,1,1,1.02244896581,184.123220155,2,0,0.21070547495,5,6.0,32,bw,99.7822452788,2019_jun_14_1307,015,256,20,5,jesica,Experiment_EEG_version,20,
Nonliving_Things,../experiment_stimuli/bw_bc_bl/Nonliving_Things/Kitchen_Uten/frying-pan_5.jpg,Kitchen_Uten,0,frying-pan,0,44,44,31,186.066846225,nV_V,1,186.071679994,187.349515889,1,1,0.952290605754,188.322338352,3,0,0.200658664107,5,6.0,32,bw,99.7822452788,2019_jun_14_1307,015,256,20,5,jesica,Experiment_EEG_version,20,
Nonliving_Things,../experiment_stimuli/bw_bc_bl/Nonliving_Things/Vehicles/bus_26.jpg,Vehicles,0,bus,0,45,45,9,190.255923317,nV_V,1,190.261891195,191.518570678,1,1,0.711776006036,192.25088742,3,0,0.260811990593,5,6.5,32,bw,99.7822452788,2019_jun_14_1307,015,256,20,5,jesica,Experiment_EEG_version,20,
Nonliving_Things,../experiment_stimuli/bw_bc_bl/Nonliving_Things/Tools/hammer_10.jpg,Tools,0,hammer,0,46,46,37,194.244591679,nV_V,1,194.249510481,195.477180173,1,1,0.330949482042,195.8286928,1,1,0.160615237895,5,6.5,32,bw,99.7822452788,2019_jun_14_1307,015,256,20,5,jesica,Experiment_EEG_version,20,
Living_Things,../experiment_stimuli/bw_bc_bl/Living_Things/Animals/horse_19.jpg,Animals,0,horse,0,47,47,40,197.722162202,V_nV,1,197.727087139,198.984807442,1,1,0.581570851151,199.586932725,1,1,0.230720485095,5,6.0,32,bw,99.7822452788,2019_jun_14_1307,015,256,20,5,jesica,Experiment_EEG_version,20,
Living_Things,../experiment_stimuli/bw_bc_bl/Living_Things/Birds/owl_10.jpg,Birds,0,owl,0,48,48,57,201.550487017,nV_V,2,201.555303317,202.833177906,0,1,0.320768838283,203.174510935,1,1,0.180623574648,5,8.0,32,bw,99.7822452788,2019_jun_14_1307,015,256,20,5,jesica,Experiment_EEG_version,20,
Nonliving_Things,../experiment_stimuli/bw_bc_bl/Nonliving_Things/Musical_Inst/saxophone_13.jpg,Musical_Inst,0,saxophone,0,49,49,72,205.088169563,V_nV,2,205.093426033,206.390904187,1,2,1.8041606918,208.215608457,3,0,0.200663806405,5,6.0,32,bw,99.7822452788,2019_jun_14_1307,015,256,20,5,jesica,Experiment_EEG_version,20,
Nonliving_Things,../experiment_stimuli/bw_bc_bl/Nonliving_Things/Furniture/filling-cabinet_25.jpg,Furniture,0,filling-cabinet,0,50,50,29,210.149175337,V_nV,2,210.15571706,211.421840926,1,2,0.872119442094,212.314543093,2,0,0.26078715222,5,6.0,32,bw,99.7822452788,2019_jun_14_1307,015,256,20,5,jesica,Experiment_EEG_version,20,
Living_Things,../experiment_stimuli/bw_bc_bl/Living_Things/Animals/elephant_5.jpg,Animals,0,elephant,0,51,51,27,214.30821304,V_nV,1,214.315385426,215.570858119,1,1,0.220710466616,215.812155558,1,1,0.200657156296,5,6.0,32,bw,99.7822452788,2019_jun_14_1307,015,256,20,5,jesica,Experiment_EEG_version,20,
Nonliving_Things,../experiment_stimuli/bw_bc_bl/Nonliving_Things/Buildings/factory_14.jpg,Buildings,0,factory,0,52,52,28,217.74568957,V_nV,2,217.750540805,219.028378173,0,1,0.240749747492,219.289683927,1,1,0.190632886253,5,7.5,32,bw,99.7822452788,2019_jun_14_1307,015,256,20,5,jesica,Experiment_EEG_version,20,
Living_Things,../experiment_stimuli/bw_bc_bl/Living_Things/Marine_creatures/whale_15.jpg,Marine_creatures,0,whale,0,53,53,94,221.213240713,V_nV,1,221.2194094,222.525980898,1,1,0.711820129305,223.258348033,3,0,0.190631179605,5,7.5,32,bw,99.7822452788,2019_jun_14_1307,015,256,20,5,jesica,Experiment_EEG_version,20,
Living_Things,../experiment_stimuli/bw_bc_bl/Living_Things/Birds/sparrow_22.jpg,Birds,0,sparrow,0,54,54,79,225.18185729,nV_V,2,225.186780175,226.464544232,0,1,0.280850850046,226.765960179,1,1,0.210686366074,5,6.0,32,bw,99.7822452788,2019_jun_14_1307,015,256,20,5,jesica,Experiment_EEG_version,20,
Nonliving_Things,../experiment_stimuli/bw_bc_bl/Nonliving_Things/Furniture/sofa_2.jpg,Furniture,0,sofa,0,55,55,78,228.70952719,nV_V,1,228.714272333,230.022278295,1,1,0.801971826237,230.844821936,3,0,0.180614025798,5,6.0,32,bw,99.7822452788,2019_jun_14_1307,015,256,20,5,jesica,Experiment_EEG_version,20,
Nonliving_Things,../experiment_stimuli/bw_bc_bl/Nonliving_Things/Furniture/Chest-of-drawers_14.jpg,Furniture,0,Chest-of-drawers,0,56,56,0,232.758328946,V_nV,2,232.764565864,234.05103656,1,2,0.912225326523,234.983832051,2,0,0.21067994507,5,6.0,32,bw,99.7822452788,2019_jun_14_1307,015,256,20,5,jesica,Experiment_EEG_version,20,
Nonliving_Things,../experiment_stimuli/bw_bc_bl/Nonliving_Things/Vehicles/boat_12.jpg,Vehicles,0,boat,0,57,57,7,236.927402524,V_nV,2,236.934575891,238.210079485,1,2,0.621583361179,238.852212533,3,0,0.220698444638,5,6.0,32,bw,99.7822452788,2019_jun_14_1307,015,256,20,5,jesica,Experiment_EEG_version,20,
Living_Things,../experiment_stimuli/bw_bc_bl/Living_Things/Birds/penguin_24.jpg,Birds,0,penguin,0,58,58,61,240.80582649,V_nV,1,240.810678395,242.058445524,1,1,3.58802954992,245.667023724,1,1,0.180604281835,5,7.0,32,bw,99.7822452788,2019_jun_14_1307,015,256,20,5,jesica,Experiment_EEG_version,20,
Nonliving_Things,../experiment_stimuli/bw_bc_bl/Nonliving_Things/Furniture/couch_4.jpg,Furniture,0,couch,0,59,59,19,247.580548661,nV_V,1,247.585324793,248.863237754,1,1,0.250771709252,249.134556499,1,1,0.180460264906,5,6.0,32,bw,99.7822452788,2019_jun_14_1307,015,256,20,5,jesica,Experiment_EEG_version,20,
Living_Things,../experiment_stimuli/bw_bc_bl/Living_Things/Birds/raven_15.jpg,Birds,0,raven,0,60,60,67,251.048093215,V_nV,1,251.052905146,252.34082637,1,1,1.21287106583,253.574231477,2,0,0.781768322922,5,6.0,32,bw,99.7822452788,2019_jun_14_1307,015,256,20,5,jesica,Experiment_EEG_version,20,
Living_Things,../experiment_stimuli/bw_bc_bl/Living_Things/Insects/dragonfly_22.jpg,Insects,0,dragonfly,0,61,61,24,256.089051995,nV_V,2,256.093924643,257.371752264,1,2,0.932257990818,258.324566686,3,0,0.280833688565,5,6.0,32,bw,99.7822452788,2019_jun_14_1307,015,256,20,5,jesica,Experiment_EEG_version,20,
Nonliving_Things,../experiment_stimuli/bw_bc_bl/Nonliving_Things/Furniture/bookcase_17.jpg,Furniture,0,bookcase,0,62,62,8,260.338290226,V_nV,2,260.343314131,261.60093277,1,2,1.08242157707,262.703901489,1,1,0.300877615809,5,6.5,32,bw,99.7822452788,2019_jun_14_1307,015,256,20,5,jesica,Experiment_EEG_version,20,
Nonliving_Things,../experiment_stimuli/bw_bc_bl/Nonliving_Things/Furniture/chair_5.jpg,Furniture,0,chair,0,63,63,15,264.737860533,V_nV,2,264.74269911,266.020551498,1,2,0.691730676219,266.732816079,2,0,0.401095349807,5,6.5,32,bw,99.7822452788,2019_jun_14_1307,015,256,20,5,jesica,Experiment_EEG_version,20,
Living_Things,../experiment_stimuli/bw_bc_bl/Living_Things/Animals/rhino_6.jpg,Animals,0,rhino,0,64,64,68,268.866827505,nV_V,2,268.872979744,270.139497309,0,1,2.14489053003,272.304935277,1,1,0.25076551782,5,6.0,32,bw,99.7822452788,2019_jun_14_1307,015,256,20,5,jesica,Experiment_EEG_version,20,
Nonliving_Things,../experiment_stimuli/bw_bc_bl/Nonliving_Things/Furniture/lamp_3.jpg,Furniture,0,lamp,0,65,65,46,274.288618545,V_nV,2,274.293396495,275.601370541,0,1,0.551431843545,276.183426517,1,1,0.250617899466,5,6.0,32,bw,99.7822452788,2019_jun_14_1307,015,256,20,5,jesica,Experiment_EEG_version,20,
Nonliving_Things,../experiment_stimuli/bw_bc_bl/Nonliving_Things/Furniture/armchair_11.jpg,Furniture,0,armchair,0,66,66,2,278.167044785,nV_V,1,278.171714881,279.47980556,1,1,1.1226661806,280.623009616,3,0,0.200660126284,5,6.5,32,bw,99.7822452788,2019_jun_14_1307,015,256,20,5,jesica,Experiment_EEG_version,20,
Living_Things,../experiment_stimuli/bw_bc_bl/Living_Things/Birds/pigeon_7.jpg,Birds,0,pigeon,0,67,67,63,282.556593191,V_nV,1,282.56134492,283.83927778,1,1,1.37322467193,285.233059356,2,0,0.1605717903,5,6.0,32,bw,99.7822452788,2019_jun_14_1307,015,256,20,5,jesica,Experiment_EEG_version,20,
Nonliving_Things,../experiment_stimuli/bw_bc_bl/Nonliving_Things/Buildings/church_9.jpg,Buildings,0,church,0,68,68,17,287.126548261,V_nV,2,287.131399937,288.40921764,1,2,0.531385976356,288.961155773,3,0,0.190627063159,5,7.0,32,bw,99.7822452788,2019_jun_14_1307,015,256,20,5,jesica,Experiment_EEG_version,20,
Nonliving_Things,../experiment_stimuli/bw_bc_bl/Nonliving_Things/Vehicles/van_26.jpg,Vehicles,0,van,0,69,69,91,290.884692522,nV_V,1,290.890945417,292.137316654,1,1,0.701597425621,292.859489469,2,0,0.160583245568,5,6.5,32,bw,99.7822452788,2019_jun_14_1307,015,256,20,5,jesica,Experiment_EEG_version,20,
Living_Things,../experiment_stimuli/bw_bc_bl/Living_Things/Marine_creatures/sperm-whale_8.jpg,Marine_creatures,0,sperm-whale,0,70,70,80,294.753103793,nV_V,2,294.757838493,295.985695479,0,1,0.711771689821,296.718009991,1,1,0.290852789301,5,6.0,32,bw,99.7822452788,2019_jun_14_1307,015,256,20,5,jesica,Experiment_EEG_version,20,
Living_Things,../experiment_stimuli/bw_bc_bl/Living_Things/Insects/ladybird_22.jpg,Insects,0,ladybird,0,71,71,45,298.741778421,nV_V,2,298.74661795,300.014450108,0,1,1.38324078731,301.418238128,1,1,0.351000657305,5,6.0,32,bw,99.7822452788,2019_jun_14_1307,015,256,20,5,jesica,Experiment_EEG_version,20,
Living_Things,../experiment_stimuli/bw_bc_bl/Living_Things/Animals/lioness_26.jpg,Animals,0,lioness,0,72,72,48,303.502137674,V_nV,1,303.508338217,304.774792365,1,1,0.140535051003,304.935875607,1,1,0.230743552558,5,6.0,32,bw,99.7822452788,2019_jun_14_1307,015,256,20,5,jesica,Experiment_EEG_version,20,
Nonliving_Things,../experiment_stimuli/bw_bc_bl/Nonliving_Things/Vehicles/tractor_21.jpg,Vehicles,0,tractor,0,73,73,86,306.899511816,nV_V,1,306.90439719,308.182200171,1,1,0.791951496154,308.994703685,3,0,0.18060977431,5,7.5,32,bw,99.7822452788,2019_jun_14_1307,015,256,20,5,jesica,Experiment_EEG_version,20,
Living_Things,../experiment_stimuli/bw_bc_bl/Living_Things/Animals/hippopotamus_8.jpg,Animals,0,hippopotamus,0,74,74,39,310.908237468,V_nV,1,310.912975371,312.160854589,1,1,0.280831756536,312.462237551,1,1,0.220543446485,5,6.0,32,bw,99.7822452788,2019_jun_14_1307,015,256,20,5,jesica,Experiment_EEG_version,20,
Living_Things,../experiment_stimuli/bw_bc_bl/Living_Things/Animals/tiger_12.jpg,Animals,0,tiger,0,75,75,84,314.4158507,V_nV,1,314.420648666,315.698543762,1,1,0.591523250565,316.310624323,1,1,0.21068072319,5,6.5,32,bw,99.7822452788,2019_jun_14_1307,015,256,20,5,jesica,Experiment_EEG_version,20,
Living_Things,../experiment_stimuli/bw_bc_bl/Living_Things/Marine_creatures/manatee_7.jpg,Marine_creatures,0,manatee,0,76,76,52,318.254193357,V_nV,1,318.258979473,319.556929114,1,1,0.320922448765,319.898404366,1,1,0.20065236371,5,6.5,32,bw,99.7822452788,2019_jun_14_1307,015,256,20,5,jesica,Experiment_EEG_version,20,
Nonliving_Things,../experiment_stimuli/bw_bc_bl/Nonliving_Things/Vehicles/motorbike_4.jpg,Vehicles,0,motorbike,0,77,77,54,321.83198096,V_nV,2,321.836871864,323.144730498,1,2,4.64031114522,327.805599168,3,0,1.76405564556,5,7.5,32,bw,99.7822452788,2019_jun_14_1307,015,256,20,5,jesica,Experiment_EEG_version,20,
Nonliving_Things,../experiment_stimuli/bw_bc_bl/Nonliving_Things/Musical_Inst/trumpet_1.jpg,Musical_Inst,0,trumpet,0,78,78,88,331.30257162,nV_V,1,331.307609345,332.595277674,1,1,0.641619679052,333.257443221,1,1,0.220701008104,5,6.5,32,bw,99.7822452788,2019_jun_14_1307,015,256,20,5,jesica,Experiment_EEG_version,20,
Living_Things,../experiment_stimuli/bw_bc_bl/Living_Things/Animals/zebra_22.jpg,Animals,0,zebra,0,79,79,95,335.211060979,nV_V,2,335.21588232,336.523818092,1,2,1.07256295532,337.616925493,3,0,0.180713637732,5,6.0,32,bw,99.7822452788,2019_jun_14_1307,015,256,20,5,jesica,Experiment_EEG_version,20,
Nonliving_Things,../experiment_stimuli/bw_bc_bl/Nonliving_Things/Buildings/castle_21.jpg,Buildings,0,castle,0,80,80,12,339.530461186,V_nV,2,339.535216558,340.80312143,1,2,0.982365108095,341.806032518,1,1,0.260788260959,5,6.0,32,bw,99.7822452788,2019_jun_14_1307,015,256,20,5,jesica,Experiment_EEG_version,20,
Nonliving_Things,../experiment_stimuli/bw_bc_bl/Nonliving_Things/Furniture/rocking-chair_24.jpg,Furniture,0,rocking-chair,0,81,81,69,343.799736348,nV_V,1,343.80464774,345.112490875,1,1,0.581493337173,345.714534016,3,0,0.180616071448,5,6.0,32,bw,99.7822452788,2019_jun_14_1307,015,256,20,5,jesica,Experiment_EEG_version,20,
Living_Things,../experiment_stimuli/bw_bc_bl/Living_Things/Marine_creatures/narwhal_16.jpg,Marine_creatures,0,narwhal,0,82,82,55,347.62805584,V_nV,1,347.632793025,348.92077718,1,1,1.25295089046,350.194282825,1,1,0.200656231493,5,6.5,32,bw,99.7822452788,2019_jun_14_1307,015,256,20,5,jesica,Experiment_EEG_version,20,
Living_Things,../experiment_stimuli/bw_bc_bl/Living_Things/Birds/hummingbird_4.jpg,Birds,0,hummingbird,0,83,83,42,352.127841171,V_nV,1,352.134137363,353.420553252,1,1,2.19500895916,355.636134746,1,1,0.200666712597,5,6.5,32,bw,99.7822452788,2019_jun_14_1307,015,256,20,5,jesica,Experiment_EEG_version,20,
Living_Things,../experiment_stimuli/bw_bc_bl/Living_Things/Birds/barn-owl_15.jpg,Birds,0,barn-owl,0,84,84,4,357.569674769,V_nV,1,357.574495152,358.902472438,0,2,8.76929365471,367.69232002,2,0,0.260910714511,5,7.0,32,bw,99.7822452788,2019_jun_14_1307,015,256,20,5,jesica,Experiment_EEG_version,20,
Nonliving_Things,../experiment_stimuli/bw_bc_bl/Nonliving_Things/Furniture/lectern_6.jpg,Furniture,0,lectern,0,85,85,47,369.686017275,nV_V,1,369.69080367,371.008788955,1,1,0.561446880456,371.590784289,3,0,0.270816707984,5,6.0,32,bw,99.7822452788,2019_jun_14_1307,015,256,20,5,jesica,Experiment_EEG_version,20,
Nonliving_Things,../experiment_stimuli/bw_bc_bl/Nonliving_Things/Vehicles/plane_13.jpg,Vehicles,0,plane,0,86,86,64,373.594512142,nV_V,1,373.599321055,374.887222444,1,1,0.441209068056,375.348999387,1,1,0.200658250134,5,6.0,32,bw,99.7822452788,2019_jun_14_1307,015,256,20,5,jesica,Experiment_EEG_version,20,
Living_Things,../experiment_stimuli/bw_bc_bl/Living_Things/Marine_creatures/shark_15.jpg,Marine_creatures,0,shark,0,87,87,75,377.28253244,V_nV,1,377.288911545,378.585261565,1,1,0.371057174634,378.976880009,1,1,0.200651209336,5,6.0,32,bw,99.7822452788,2019_jun_14_1307,015,256,20,5,jesica,Experiment_EEG_version,20,
Living_Things,../experiment_stimuli/bw_bc_bl/Living_Things/Animals/giraffe_9.jpg,Animals,0,giraffe,0,88,88,32,380.920439783,nV_V,2,380.925367578,382.253236125,0,1,0.0603551357053,382.334135011,1,1,1.54357335996,5,7.0,32,bw,99.7822452788,2019_jun_14_1307,015,256,20,5,jesica,Experiment_EEG_version,20,
Living_Things,../experiment_stimuli/bw_bc_bl/Living_Things/Birds/goose_18.jpg,Birds,0,goose,0,89,89,34,385.620654221,nV_V,2,385.625409078,386.98353003,1,2,0.97237984091,387.976464095,3,0,0.210680632852,5,6.0,32,bw,99.7822452788,2019_jun_14_1307,015,256,20,5,jesica,Experiment_EEG_version,20,
Living_Things,../experiment_stimuli/bw_bc_bl/Living_Things/Animals/cow_4.jpg,Animals,0,cow,0,90,90,20,389.920009212,V_nV,1,389.924830655,391.252808057,1,1,0.621578691993,391.894933668,3,0,0.200648551341,5,6.0,32,bw,99.7822452788,2019_jun_14_1307,015,256,20,5,jesica,Experiment_EEG_version,20,
Nonliving_Things,../experiment_stimuli/bw_bc_bl/Nonliving_Things/Furniture/bedside-table_9.jpg,Furniture,0,bedside-table,0,91,91,6,393.82850256,nV_V,1,393.833355457,395.131231609,1,1,0.751702144276,395.903497159,2,0,0.29084876366,5,6.0,32,bw,99.7822452788,2019_jun_14_1307,015,256,20,5,jesica,Experiment_EEG_version,20,
Nonliving_Things,../experiment_stimuli/bw_bc_bl/Nonliving_Things/Musical_Inst/piano__3.jpg,Musical_Inst,0,piano,0,92,92,62,397.927416082,nV_V,1,397.932242416,399.220124351,1,1,2.42551494716,401.666201883,3,0,0.240775104612,5,6.0,32,bw,99.7822452788,2019_jun_14_1307,015,256,20,5,jesica,Experiment_EEG_version,20,
Nonliving_Things,../experiment_stimuli/bw_bc_bl/Nonliving_Things/Vehicles/train_15.jpg,Vehicles,0,train,0,93,93,87,403.649860591,nV_V,1,403.654778765,404.942562262,1,1,0.401117913425,405.364249403,1,1,1.20283964975,5,6.5,32,bw,99.7822452788,2019_jun_14_1307,015,256,20,5,jesica,Experiment_EEG_version,20,
Living_Things,../experiment_stimuli/bw_bc_bl/Living_Things/Insects/butterfly_4.jpg,Insects,0,butterfly,0,94,94,10,408.310009057,V_nV,1,408.316448683,409.602702875,1,1,3.60791141167,413.231183691,1,1,0.180613999721,5,6.0,32,bw,99.7822452788,2019_jun_14_1307,015,256,20,5,jesica,Experiment_EEG_version,20,
Living_Things,../experiment_stimuli/bw_bc_bl/Living_Things/Birds/toucan_4.jpg,Birds,0,toucan,0,95,95,85,415.144840496,V_nV,1,415.150008181,416.437555339,1,1,1.27283984236,417.730969748,1,1,0.16057417402,5,6.0,32,bw,99.7822452788,2019_jun_14_1307,015,256,20,5,jesica,Experiment_EEG_version,20,
