category,probe_path,subcategory,fixation_duration,label,trials.thisRepN,trials.thisTrialN,trials.thisN,trials.thisIndex,image_onset_time,response_window,correctAns,probe_onset,discrim_resptime,response.corr,response.keys,response.rt,visible_resptime,visible.keys,visible.corr,visible.rt,probeFrames,jitter2,n_square,experiment_color,frameRate,date,session,image_size,premask_dur,probeFrames,participant,expName,postmask_dur,
Nonliving_Things,../experiment_stimuli/bw_bc_bl/Nonliving_Things/Kitchen_Uten/small-saucepan_8.jpg,Kitchen_Uten,0,small-saucepan,0,0,0,77,3.71590945171,nV_V,1,3.73833477357,4.99858710403,1,1,0.811997578014,5.84143014997,2,0,0.451209022664,5,6.5,32,bw,99.7826903709,2019_jun_14_1218,010,256,20,5,jesica,Experiment_EEG_version,20,
Nonliving_Things,../experiment_stimuli/bw_bc_bl/Nonliving_Things/Vehicles/train_14.jpg,Vehicles,0,train,0,1,1,87,8.02526096441,nV_V,1,8.0303314263,9.28791860305,1,1,0.411118751392,9.71960798837,1,1,0.240748176351,5,6.0,32,bw,99.7826903709,2019_jun_14_1218,010,256,20,5,jesica,Experiment_EEG_version,20,
Living_Things,../experiment_stimuli/bw_bc_bl/Living_Things/Birds/seagull_1.jpg,Birds,0,seagull,0,2,2,74,11.6932425615,V_nV,1,11.698236445,12.9859468937,1,1,0.992451000959,13.9989757654,3,0,0.320919046644,5,6.5,32,bw,99.7826903709,2019_jun_14_1218,010,256,20,5,jesica,Experiment_EEG_version,20,
Living_Things,../experiment_stimuli/bw_bc_bl/Living_Things/Birds/rooster_12.jpg,Birds,0,rooster,0,3,3,70,16.0527098789,V_nV,1,16.0576941841,17.3153537433,1,1,0.491294753272,17.8272207021,2,0,0.280682303477,5,6.0,32,bw,99.7826903709,2019_jun_14_1218,010,256,20,5,jesica,Experiment_EEG_version,20,
Nonliving_Things,../experiment_stimuli/bw_bc_bl/Nonliving_Things/Kitchen_Uten/teapot_11.jpg,Kitchen_Uten,0,teapot,0,4,4,83,19.8409418622,V_nV,2,19.845878751,21.0935768327,0,1,0.571470980998,21.6856045495,1,1,0.260787419509,5,6.0,32,bw,99.7826903709,2019_jun_14_1218,010,256,20,5,jesica,Experiment_EEG_version,20,
Living_Things,../experiment_stimuli/bw_bc_bl/Living_Things/Birds/hen_6.jpg,Birds,0,hen,0,5,5,38,23.6792916697,V_nV,1,23.6841535778,24.9519563229,1,1,0.461227206513,25.4337252239,1,1,0.260781174991,5,6.0,32,bw,99.7826903709,2019_jun_14_1218,010,256,20,5,jesica,Experiment_EEG_version,20,
Nonliving_Things,../experiment_stimuli/bw_bc_bl/Nonliving_Things/Vehicles/motorbike_10.jpg,Vehicles,0,motorbike,0,6,6,54,27.427441603,V_nV,2,27.4324592534,28.7301738258,1,2,0.892006315291,29.6427450087,3,0,0.260812396184,5,6.0,32,bw,99.7826903709,2019_jun_14_1218,010,256,20,5,jesica,Experiment_EEG_version,20,
Living_Things,../experiment_stimuli/bw_bc_bl/Living_Things/Animals/cow_16.jpg,Animals,0,cow,0,7,7,20,31.6365840249,V_nV,1,31.6415840704,32.9192763502,1,1,0.60154805379,33.5413692682,3,0,0.561444384046,5,7.0,32,bw,99.7826903709,2019_jun_14_1218,010,256,20,5,jesica,Experiment_EEG_version,20,
Nonliving_Things,../experiment_stimuli/bw_bc_bl/Nonliving_Things/Furniture/couch_9.jpg,Furniture,0,couch,0,8,8,19,35.835714594,nV_V,1,35.8405092852,37.0883376696,0,2,1.39309464302,38.5019878601,2,0,0.611558154691,5,6.5,32,bw,99.7826903709,2019_jun_14_1218,010,256,20,5,jesica,Experiment_EEG_version,20,
Nonliving_Things,../experiment_stimuli/bw_bc_bl/Nonliving_Things/Vehicles/plane_25.jpg,Vehicles,0,plane,0,9,9,64,40.8466050145,nV_V,1,40.8520794176,42.0892065158,1,1,0.0904206223786,42.2001705281,1,1,0.210670892615,5,6.5,32,bw,99.7826903709,2019_jun_14_1218,010,256,20,5,jesica,Experiment_EEG_version,20,
Nonliving_Things,../experiment_stimuli/bw_bc_bl/Nonliving_Things/Furniture/lamp_14.jpg,Furniture,0,lamp,0,10,10,46,44.1437927,nV_V,1,44.1498188847,45.416436248,1,1,0.56144748535,45.9984564199,3,0,0.240743770264,5,6.0,32,bw,99.7826903709,2019_jun_14_1218,010,256,20,5,jesica,Experiment_EEG_version,20,
Nonliving_Things,../experiment_stimuli/bw_bc_bl/Nonliving_Things/Kitchen_Uten/cup_25.jpg,Kitchen_Uten,0,cup,0,11,11,22,47.9721203796,nV_V,1,47.9770444562,49.224731185,1,1,0.020277577918,49.2655506227,1,1,0.230734755285,5,6.0,32,bw,99.7826903709,2019_jun_14_1218,010,256,20,5,jesica,Experiment_EEG_version,20,
Nonliving_Things,../experiment_stimuli/bw_bc_bl/Nonliving_Things/Furniture/sofa_5.jpg,Furniture,0,sofa,0,12,12,78,51.2291749292,V_nV,2,51.2340119844,52.5118617513,1,2,0.82201345684,53.3544230228,1,1,0.180671664421,5,7.0,32,bw,99.7826903709,2019_jun_14_1218,010,256,20,5,jesica,Experiment_EEG_version,20,
Living_Things,../experiment_stimuli/bw_bc_bl/Living_Things/Insects/scorpion_4.jpg,Insects,0,scorpion,0,13,13,73,55.267954614,V_nV,1,55.2730078241,56.5706872726,1,1,0.78192381328,57.3731820732,2,0,0.240743292961,5,6.0,32,bw,99.7826903709,2019_jun_14_1218,010,256,20,5,jesica,Experiment_EEG_version,20,
Nonliving_Things,../experiment_stimuli/bw_bc_bl/Nonliving_Things/Musical_Inst/violin_2.jpg,Musical_Inst,0,violin,0,14,14,92,59.3468442699,V_nV,2,59.351748121,60.6395328692,1,2,1.60372010386,62.2638055808,3,0,0.200659645256,5,6.0,32,bw,99.7826903709,2019_jun_14_1218,010,256,20,5,jesica,Experiment_EEG_version,20,
Nonliving_Things,../experiment_stimuli/bw_bc_bl/Nonliving_Things/Furniture/bedside-table_0.jpg,Furniture,0,bedside-table,0,15,15,6,64.1973632504,nV_V,1,64.2024228699,65.4600095507,1,1,0.80180596048,66.2823764049,1,1,0.471248254646,5,6.0,32,bw,99.7826903709,2019_jun_14_1218,010,256,20,5,jesica,Experiment_EEG_version,20,
Living_Things,../experiment_stimuli/bw_bc_bl/Living_Things/Animals/giraffe_22.jpg,Animals,0,giraffe,0,16,16,32,68.486688253,nV_V,2,68.4923232966,69.7693785219,1,2,0.702932617161,70.4928630064,2,0,0.190625781193,5,7.5,32,bw,99.7826903709,2019_jun_14_1218,010,256,20,5,jesica,Experiment_EEG_version,20,
Nonliving_Things,../experiment_stimuli/bw_bc_bl/Nonliving_Things/Tools/axe_25.jpg,Tools,0,axe,0,17,17,3,72.4152307347,nV_V,1,72.4215108631,73.6878992226,1,1,0.691730867606,74.4001770853,3,0,0.260787171312,5,6.5,32,bw,99.7826903709,2019_jun_14_1218,010,256,20,5,jesica,Experiment_EEG_version,20,
Nonliving_Things,../experiment_stimuli/bw_bc_bl/Nonliving_Things/Furniture/lectern_16.jpg,Furniture,0,lectern,0,18,18,47,76.3938856791,V_nV,2,76.400200367,77.6465015402,1,2,0.581493604463,78.2485447978,2,0,0.210675715934,5,8.0,32,bw,99.7826903709,2019_jun_14_1218,010,256,20,5,jesica,Experiment_EEG_version,20,
Living_Things,../experiment_stimuli/bw_bc_bl/Living_Things/Marine_creatures/dolphin_24.jpg,Marine_creatures,0,dolphin,0,19,19,23,80.19213288,V_nV,1,80.1971293427,81.4347485877,1,1,1.02244869526,82.477732331,1,1,0.190482260659,5,6.0,32,bw,99.7826903709,2019_jun_14_1218,010,256,20,5,jesica,Experiment_EEG_version,20,
Living_Things,../experiment_stimuli/bw_bc_bl/Living_Things/Birds/penguin_20.jpg,Birds,0,penguin,0,20,20,61,84.4012880689,nV_V,2,84.40705293,85.6639329032,0,1,0.681924046017,86.3664265224,2,0,0.391068452038,5,6.0,32,bw,99.7826903709,2019_jun_14_1218,010,256,20,5,jesica,Experiment_EEG_version,20,
Living_Things,../experiment_stimuli/bw_bc_bl/Living_Things/Marine_creatures/pomfret_16.jpg,Marine_creatures,0,pomfret,0,21,21,65,88.490180457,nV_V,2,88.4950568085,89.7428039536,0,1,0.290869334247,90.0542413653,1,1,0.190631770063,5,6.0,32,bw,99.7826903709,2019_jun_14_1218,010,256,20,5,jesica,Experiment_EEG_version,20,
Living_Things,../experiment_stimuli/bw_bc_bl/Living_Things/Animals/turtle_22.jpg,Animals,0,turtle,0,22,22,90,91.9777565585,nV_V,2,91.9828600986,93.2404035055,1,2,1.34315889562,94.6041298886,2,0,0.371027923189,5,6.0,32,bw,99.7826903709,2019_jun_14_1218,010,256,20,5,jesica,Experiment_EEG_version,20,
Nonliving_Things,../experiment_stimuli/bw_bc_bl/Nonliving_Things/Kitchen_Uten/pot_5.jpg,Kitchen_Uten,0,pot,0,23,23,66,96.7080431366,nV_V,1,96.7131071324,97.9606712046,1,1,0.500890740193,98.4925711472,1,1,0.391064128838,5,6.0,32,bw,99.7826903709,2019_jun_14_1218,010,256,20,5,jesica,Experiment_EEG_version,20,
Living_Things,../experiment_stimuli/bw_bc_bl/Living_Things/Birds/toucan_19.jpg,Birds,0,toucan,0,24,24,85,100.616543488,V_nV,1,100.621681584,101.879186548,1,1,1.23290112149,103.132672141,2,0,0.340954924934,5,6.0,32,bw,99.7826903709,2019_jun_14_1218,010,256,20,5,jesica,Experiment_EEG_version,20,
Living_Things,../experiment_stimuli/bw_bc_bl/Living_Things/Birds/magpie_7.jpg,Birds,0,magpie,0,25,25,51,105.206519828,V_nV,1,105.211426551,106.459140828,1,1,0.330940579996,106.810660226,1,1,0.240739206783,5,7.0,32,bw,99.7826903709,2019_jun_14_1218,010,256,20,5,jesica,Experiment_EEG_version,20,
Nonliving_Things,../experiment_stimuli/bw_bc_bl/Nonliving_Things/Kitchen_Uten/fondue_2.jpg,Kitchen_Uten,0,fondue,0,26,26,30,108.784320919,nV_V,1,108.789429711,110.066984019,1,1,0.69172735652,110.789296712,2,0,0.200649445876,5,6.0,32,bw,99.7826903709,2019_jun_14_1218,010,256,20,5,jesica,Experiment_EEG_version,20,
Living_Things,../experiment_stimuli/bw_bc_bl/Living_Things/Marine_creatures/sperm-whale_6.jpg,Marine_creatures,0,sperm-whale,0,27,27,80,112.722870833,nV_V,2,112.727774105,113.995529527,1,2,1.13269269885,115.148759602,2,0,0.220692414325,5,6.0,32,bw,99.7826903709,2019_jun_14_1218,010,256,20,5,jesica,Experiment_EEG_version,20,
Living_Things,../experiment_stimuli/bw_bc_bl/Living_Things/Marine_creatures/manatee_6.jpg,Marine_creatures,0,manatee,0,28,28,52,117.102391018,nV_V,2,117.108226998,118.3650296,0,1,0.14053728804,118.526112214,1,1,2.76607816014,5,6.5,32,bw,99.7826903709,2019_jun_14_1218,010,256,20,5,jesica,Experiment_EEG_version,20,
Nonliving_Things,../experiment_stimuli/bw_bc_bl/Nonliving_Things/Buildings/mill_4.jpg,Buildings,0,mill,0,29,29,53,123.025253772,V_nV,2,123.030245998,124.307958337,1,2,1.0926094423,125.421117922,1,1,0.350982221775,5,6.5,32,bw,99.7826903709,2019_jun_14_1218,010,256,20,5,jesica,Experiment_EEG_version,20,
Nonliving_Things,../experiment_stimuli/bw_bc_bl/Nonliving_Things/Furniture/bed_2.jpg,Furniture,0,bed,0,30,30,5,127.504998957,nV_V,1,127.510827194,128.797719199,1,1,0.832039313391,129.650293707,3,0,0.260786028113,5,6.5,32,bw,99.7826903709,2019_jun_14_1218,010,256,20,5,jesica,Experiment_EEG_version,20,
Living_Things,../experiment_stimuli/bw_bc_bl/Living_Things/Animals/cheetah_19.jpg,Animals,0,cheetah,0,31,31,16,131.644004775,V_nV,1,131.649953122,132.916664683,1,1,0.791984044481,133.729232324,2,0,0.150551449507,5,7.0,32,bw,99.7826903709,2019_jun_14_1218,010,256,20,5,jesica,Experiment_EEG_version,20,
Living_Things,../experiment_stimuli/bw_bc_bl/Living_Things/Birds/pigeon_14.jpg,Birds,0,pigeon,0,32,32,63,135.612629577,nV_V,2,135.617560537,136.875269272,0,1,0.581458544824,137.477330165,1,1,0.230741090141,5,7.0,32,bw,99.7826903709,2019_jun_14_1218,010,256,20,5,jesica,Experiment_EEG_version,20,
Nonliving_Things,../experiment_stimuli/bw_bc_bl/Nonliving_Things/Furniture/rocking-chair_21.jpg,Furniture,0,rocking-chair,0,33,33,69,139.440946385,V_nV,2,139.446183912,140.733661747,1,2,0.932095068507,141.686316322,3,0,0.320921866689,5,6.5,32,bw,99.7826903709,2019_jun_14_1218,010,256,20,5,jesica,Experiment_EEG_version,20,
Living_Things,../experiment_stimuli/bw_bc_bl/Living_Things/Animals/armadillo_17.jpg,Animals,0,armadillo,0,34,34,1,143.740296473,nV_V,2,143.746235298,145.002944198,0,1,0.892168376595,145.915655405,1,1,0.591527238954,5,6.0,32,bw,99.7826903709,2019_jun_14_1218,010,256,20,5,jesica,Experiment_EEG_version,20,
Living_Things,../experiment_stimuli/bw_bc_bl/Living_Things/Birds/sparrow_5.jpg,Birds,0,sparrow,0,35,35,79,148.240076661,nV_V,2,148.245162735,149.522767325,1,2,0.641618859954,150.184940469,2,0,0.24074527435,5,6.0,32,bw,99.7826903709,2019_jun_14_1218,010,256,20,5,jesica,Experiment_EEG_version,20,
Nonliving_Things,../experiment_stimuli/bw_bc_bl/Nonliving_Things/Furniture/bookcase_26.jpg,Furniture,0,bookcase,0,36,36,8,152.158601117,V_nV,2,152.163446149,153.431262951,0,1,0.120490067638,153.572329773,1,1,0.210674659349,5,7.5,32,bw,99.7826903709,2019_jun_14_1218,010,256,20,5,jesica,Experiment_EEG_version,20,
Living_Things,../experiment_stimuli/bw_bc_bl/Living_Things/Animals/elephant_3.jpg,Animals,0,elephant,0,37,37,27,155.515898517,V_nV,1,155.522786813,156.808612646,1,1,0.932255806401,157.761425165,2,0,0.290852567647,5,6.0,32,bw,99.7826903709,2019_jun_14_1218,010,256,20,5,jesica,Experiment_EEG_version,20,
Nonliving_Things,../experiment_stimuli/bw_bc_bl/Nonliving_Things/Vehicles/van_16.jpg,Vehicles,0,van,0,38,38,91,159.785179675,V_nV,2,159.791154714,161.067872609,1,2,1.04249469424,162.130924915,3,0,0.250772848725,5,6.0,32,bw,99.7826903709,2019_jun_14_1218,010,256,20,5,jesica,Experiment_EEG_version,20,
Living_Things,../experiment_stimuli/bw_bc_bl/Living_Things/Insects/ladybird_15.jpg,Insects,0,ladybird,0,39,39,45,164.114591389,V_nV,1,164.12076388,165.36721795,0,2,0.952306038234,166.340076133,2,0,0.260789212305,5,6.5,32,bw,99.7826903709,2019_jun_14_1218,010,256,20,5,jesica,Experiment_EEG_version,20,
Living_Things,../experiment_stimuli/bw_bc_bl/Living_Things/Birds/pelican_12.jpg,Birds,0,pelican,0,40,40,60,168.333767284,V_nV,1,168.338683308,169.576372988,0,2,0.611560249235,170.20848701,1,1,0.17059107963,5,6.0,32,bw,99.7826903709,2019_jun_14_1218,010,256,20,5,jesica,Experiment_EEG_version,20,
Nonliving_Things,../experiment_stimuli/bw_bc_bl/Nonliving_Things/Buildings/palace_14.jpg,Buildings,0,palace,0,41,41,58,172.111988651,V_nV,2,172.117020963,173.364606877,0,1,0.471251386218,173.856448063,1,1,0.190719787497,5,6.0,32,bw,99.7826903709,2019_jun_14_1218,010,256,20,5,jesica,Experiment_EEG_version,20,
Living_Things,../experiment_stimuli/bw_bc_bl/Living_Things/Animals/cat_0.jpg,Animals,0,cat,0,42,42,13,175.77995712,nV_V,2,175.785922787,177.052622447,0,1,0.310909694061,177.384117722,1,1,0.200678166933,5,6.0,32,bw,99.7826903709,2019_jun_14_1218,010,256,20,5,jesica,Experiment_EEG_version,20,
Nonliving_Things,../experiment_stimuli/bw_bc_bl/Nonliving_Things/Musical_Inst/drum_9.jpg,Musical_Inst,0,drum,0,43,43,25,179.317642741,V_nV,2,179.322671568,180.600337548,0,1,0.320926178247,180.941829702,1,1,0.250770337414,5,6.0,32,bw,99.7826903709,2019_jun_14_1218,010,256,20,5,jesica,Experiment_EEG_version,20,
Nonliving_Things,../experiment_stimuli/bw_bc_bl/Nonliving_Things/Kitchen_Uten/frying-pan_21.jpg,Kitchen_Uten,0,frying-pan,0,44,44,31,182.925488319,V_nV,2,182.930288624,184.218216678,1,2,0.741840394679,184.980611631,1,1,0.260788997635,5,7.5,32,bw,99.7826903709,2019_jun_14_1218,010,256,20,5,jesica,Experiment_EEG_version,20,
Nonliving_Things,../experiment_stimuli/bw_bc_bl/Nonliving_Things/Buildings/church_3.jpg,Buildings,0,church,0,45,45,17,186.97429153,V_nV,2,186.979384856,188.297079262,1,2,1.08259578142,189.400229317,3,0,0.200677727349,5,8.0,32,bw,99.7826903709,2019_jun_14_1218,010,256,20,5,jesica,Experiment_EEG_version,20,
Living_Things,../experiment_stimuli/bw_bc_bl/Living_Things/Birds/owl_3.jpg,Birds,0,owl,0,46,46,57,191.333769975,V_nV,1,191.338701984,192.6264921,1,1,1.25295289047,193.899985625,1,1,0.23056934448,5,6.0,32,bw,99.7826903709,2019_jun_14_1218,010,256,20,5,jesica,Experiment_EEG_version,20,
Nonliving_Things,../experiment_stimuli/bw_bc_bl/Nonliving_Things/Buildings/house_10.jpg,Buildings,0,house,0,47,47,41,195.863620868,nV_V,1,195.868536553,197.176374703,1,1,1.8442410049,199.041187973,3,0,0.170602681115,5,6.0,32,bw,99.7826903709,2019_jun_14_1218,010,256,20,5,jesica,Experiment_EEG_version,20,
Nonliving_Things,../experiment_stimuli/bw_bc_bl/Nonliving_Things/Furniture/chair_23.jpg,Furniture,0,chair,0,48,48,15,200.944670585,V_nV,2,200.94962307,202.217354982,1,2,0.801969759166,203.039864236,2,0,0.651639874559,5,6.5,32,bw,99.7826903709,2019_jun_14_1218,010,256,20,5,jesica,Experiment_EEG_version,20,
Living_Things,../experiment_stimuli/bw_bc_bl/Living_Things/Animals/tapir_4.jpg,Animals,0,tapir,0,49,49,82,205.42440365,V_nV,1,205.431518788,206.687052567,1,1,0.39108174108,207.098713148,1,1,0.230712838937,5,6.0,32,bw,99.7826903709,2019_jun_14_1218,010,256,20,5,jesica,Experiment_EEG_version,20,
Nonliving_Things,../experiment_stimuli/bw_bc_bl/Nonliving_Things/Furniture/table_14.jpg,Furniture,0,table,0,50,50,81,209.062316463,V_nV,2,209.067296309,210.355027686,0,1,0.571494022384,210.947078673,1,1,0.270909146406,5,6.0,32,bw,99.7826903709,2019_jun_14_1218,010,256,20,5,jesica,Experiment_EEG_version,20,
Nonliving_Things,../experiment_stimuli/bw_bc_bl/Nonliving_Things/Vehicles/bus_14.jpg,Vehicles,0,bus,0,51,51,9,212.950766744,nV_V,1,212.95569149,214.24348455,1,1,0.771904993802,215.035934498,3,0,0.200656833127,5,6.0,32,bw,99.7826903709,2019_jun_14_1218,010,256,20,5,jesica,Experiment_EEG_version,20,
Nonliving_Things,../experiment_stimuli/bw_bc_bl/Nonliving_Things/Kitchen_Uten/saucepan_6.jpg,Kitchen_Uten,0,saucepan,0,52,52,71,216.969510882,V_nV,2,216.97442189,218.242174091,1,2,1.83421923127,220.096953844,2,0,0.411104319151,5,6.5,32,bw,99.7826903709,2019_jun_14_1218,010,256,20,5,jesica,Experiment_EEG_version,20,
Living_Things,../experiment_stimuli/bw_bc_bl/Living_Things/Birds/ostrich_22.jpg,Birds,0,ostrich,0,53,53,56,222.240969108,V_nV,1,222.247164399,223.503617059,0,2,0.781929338817,224.30610387,1,1,0.200654186308,5,6.0,32,bw,99.7826903709,2019_jun_14_1218,010,256,20,5,jesica,Experiment_EEG_version,20,
Nonliving_Things,../experiment_stimuli/bw_bc_bl/Nonliving_Things/Musical_Inst/guitar_2.jpg,Musical_Inst,0,guitar,0,54,54,36,226.239661645,nV_V,1,226.24467369,227.512337708,1,1,0.80198773602,228.334893913,3,0,0.210724294186,5,6.5,32,bw,99.7826903709,2019_jun_14_1218,010,256,20,5,jesica,Experiment_EEG_version,20,
Living_Things,../experiment_stimuli/bw_bc_bl/Living_Things/Birds/goldfinch_21.jpg,Birds,0,goldfinch,0,55,55,33,230.278448965,V_nV,1,230.283447364,231.541091093,1,1,0.350990183651,231.912642587,1,1,0.20065536676,5,6.0,32,bw,99.7826903709,2019_jun_14_1218,010,256,20,5,jesica,Experiment_EEG_version,20,
Living_Things,../experiment_stimuli/bw_bc_bl/Living_Things/Birds/raven_5.jpg,Birds,0,raven,0,56,56,67,233.846203215,V_nV,1,233.852365988,235.138916987,0,2,0.631592251826,235.791077922,1,1,0.371020675171,5,6.0,32,bw,99.7826903709,2019_jun_14_1218,010,256,20,5,jesica,Experiment_EEG_version,20,
Nonliving_Things,../experiment_stimuli/bw_bc_bl/Nonliving_Things/Furniture/wardrobe_20.jpg,Furniture,0,wardrobe,0,57,57,93,237.895007636,nV_V,1,237.899933901,239.187715837,1,1,0.381048982497,239.589359961,1,1,0.240741296671,5,6.0,32,bw,99.7826903709,2019_jun_14_1218,010,256,20,5,jesica,Experiment_EEG_version,20,
Nonliving_Things,../experiment_stimuli/bw_bc_bl/Nonliving_Things/Vehicles/boat_20.jpg,Vehicles,0,boat,0,58,58,7,241.562984143,nV_V,1,241.567844014,242.875744696,1,1,1.7340107942,244.630315842,3,0,0.511337335221,5,6.0,32,bw,99.7826903709,2019_jun_14_1218,010,256,20,5,jesica,Experiment_EEG_version,20,
Living_Things,../experiment_stimuli/bw_bc_bl/Living_Things/Birds/hummingbird_20.jpg,Birds,0,hummingbird,0,59,59,42,246.874524781,V_nV,1,246.879610182,248.147194542,1,1,1.34314789949,249.510907114,1,1,0.260786960833,5,6.0,32,bw,99.7826903709,2019_jun_14_1218,010,256,20,5,jesica,Experiment_EEG_version,20,
Living_Things,../experiment_stimuli/bw_bc_bl/Living_Things/Animals/rhino_7.jpg,Animals,0,rhino,0,60,60,68,251.504590448,nV_V,2,251.509571738,252.807323851,1,2,1.99456087872,254.822448082,3,0,0.32091927249,5,7.0,32,bw,99.7826903709,2019_jun_14_1218,010,256,20,5,jesica,Experiment_EEG_version,20,
Nonliving_Things,../experiment_stimuli/bw_bc_bl/Nonliving_Things/Buildings/castle_6.jpg,Buildings,0,castle,0,61,61,12,256.876277412,nV_V,1,256.881358114,258.168988737,1,1,6.0333606801,264.222903299,1,1,0.20065158885,5,7.5,32,bw,99.7826903709,2019_jun_14_1218,010,256,20,5,jesica,Experiment_EEG_version,20,
Living_Things,../experiment_stimuli/bw_bc_bl/Living_Things/Marine_creatures/killer-whale_18.jpg,Marine_creatures,0,killer-whale,0,62,62,43,266.156449822,nV_V,2,266.161384319,267.479237919,1,2,1.39326112904,268.893064385,3,0,0.260787806474,5,6.0,32,bw,99.7826903709,2019_jun_14_1218,010,256,20,5,jesica,Experiment_EEG_version,20,
Nonliving_Things,../experiment_stimuli/bw_bc_bl/Nonliving_Things/Musical_Inst/saxophone_11.jpg,Musical_Inst,0,saxophone,0,63,63,72,270.886737336,nV_V,1,270.891803407,272.169424004,1,1,0.411132363603,272.601116227,1,1,0.210672483314,5,6.0,32,bw,99.7826903709,2019_jun_14_1218,010,256,20,5,jesica,Experiment_EEG_version,20,
Living_Things,../experiment_stimuli/bw_bc_bl/Living_Things/Birds/partridge_14.jpg,Birds,0,partridge,0,64,64,59,274.544685697,nV_V,2,274.549696051,275.837407446,1,2,0.651641159784,276.509582466,3,0,0.180615789257,5,6.5,32,bw,99.7826903709,2019_jun_14_1218,010,256,20,5,jesica,Experiment_EEG_version,20,
Living_Things,../experiment_stimuli/bw_bc_bl/Living_Things/Animals/tiger_22.jpg,Animals,0,tiger,0,65,65,84,278.423120141,nV_V,2,278.428074664,279.695790023,1,2,0.842049598228,280.568423237,2,0,0.25061433157,5,6.0,32,bw,99.7826903709,2019_jun_14_1218,010,256,20,5,jesica,Experiment_EEG_version,20,
Nonliving_Things,../experiment_stimuli/bw_bc_bl/Nonliving_Things/Musical_Inst/trumpet_2.jpg,Musical_Inst,0,trumpet,0,66,66,88,282.552095515,V_nV,2,282.55716542,283.814743646,0,1,0.581486950163,284.416781942,1,1,0.2305751862,5,6.5,32,bw,99.7826903709,2019_jun_14_1218,010,256,20,5,jesica,Experiment_EEG_version,20,
Living_Things,../experiment_stimuli/bw_bc_bl/Living_Things/Animals/zebra_11.jpg,Animals,0,zebra,0,67,67,95,286.380427842,V_nV,1,286.386844393,287.653091458,1,1,2.00460602017,289.678272314,2,0,0.230726056267,5,6.5,32,bw,99.7826903709,2019_jun_14_1218,010,256,20,5,jesica,Experiment_EEG_version,20,
Living_Things,../experiment_stimuli/bw_bc_bl/Living_Things/Birds/kiwi_18.jpg,Birds,0,kiwi,0,68,68,44,291.641856415,nV_V,2,291.648454532,292.904509167,0,1,1.0324922544,293.957570514,1,1,0.200679566246,5,6.5,32,bw,99.7826903709,2019_jun_14_1218,010,256,20,5,jesica,Experiment_EEG_version,20,
Living_Things,../experiment_stimuli/bw_bc_bl/Living_Things/Birds/duck_13.jpg,Birds,0,duck,0,69,69,26,295.891096255,nV_V,2,295.896076364,297.183810268,1,2,2.23509151675,299.439459722,3,0,1.15273472015,5,6.5,32,bw,99.7826903709,2019_jun_14_1218,010,256,20,5,jesica,Experiment_EEG_version,20,
Living_Things,../experiment_stimuli/bw_bc_bl/Living_Things/Animals/horse_21.jpg,Animals,0,horse,0,70,70,40,302.325081998,V_nV,1,302.330080663,303.597756749,1,1,0.922240047716,304.540558476,1,1,0.230734379962,5,7.5,32,bw,99.7826903709,2019_jun_14_1218,010,256,20,5,jesica,Experiment_EEG_version,20,
Living_Things,../experiment_stimuli/bw_bc_bl/Living_Things/Animals/lynx_8.jpg,Animals,0,lynx,0,71,71,50,306.51419421,nV_V,2,306.519260942,307.806907189,1,2,0.80197257828,308.629439059,2,0,0.170589628629,5,6.0,32,bw,99.7826903709,2019_jun_14_1218,010,256,20,5,jesica,Experiment_EEG_version,20,
Living_Things,../experiment_stimuli/bw_bc_bl/Living_Things/Animals/hippopotamus_17.jpg,Animals,0,hippopotamus,0,72,72,39,310.532932791,nV_V,2,310.537852638,311.825646852,1,2,0.421143420041,312.26734591,2,0,0.230714124627,5,6.0,32,bw,99.7826903709,2019_jun_14_1218,010,256,20,5,jesica,Experiment_EEG_version,20,
Living_Things,../experiment_stimuli/bw_bc_bl/Living_Things/Marine_creatures/narwhal_25.jpg,Marine_creatures,0,narwhal,0,73,73,55,314.230976777,nV_V,2,314.235986141,315.50364293,1,2,0.421181072947,315.945377438,2,0,0.210680474993,5,6.0,32,bw,99.7826903709,2019_jun_14_1218,010,256,20,5,jesica,Experiment_EEG_version,20,
Nonliving_Things,../experiment_stimuli/bw_bc_bl/Nonliving_Things/Kitchen_Uten/coking-pot_17.jpg,Kitchen_Uten,0,coking-pot,0,74,74,18,317.888924615,nV_V,1,317.893755602,319.161594948,1,1,0.621578241233,319.803735015,2,0,0.24075104855,5,6.0,32,bw,99.7826903709,2019_jun_14_1218,010,256,20,5,jesica,Experiment_EEG_version,20,
Nonliving_Things,../experiment_stimuli/bw_bc_bl/Nonliving_Things/Tools/hammer_6.jpg,Tools,0,hammer,0,75,75,37,321.777389569,V_nV,2,321.782329469,323.030003532,0,1,1.06254047435,324.113104227,1,1,0.220545112155,5,6.5,32,bw,99.7826903709,2019_jun_14_1218,010,256,20,5,jesica,Experiment_EEG_version,20,
Nonliving_Things,../experiment_stimuli/bw_bc_bl/Nonliving_Things/Vehicles/car_4.jpg,Vehicles,0,car,0,76,76,11,326.076730222,V_nV,2,326.083259504,327.359418618,0,1,1.20284266816,328.582825669,1,1,0.200653471984,5,6.5,32,bw,99.7826903709,2019_jun_14_1218,010,256,20,5,jesica,Experiment_EEG_version,20,
Living_Things,../experiment_stimuli/bw_bc_bl/Living_Things/Animals/lioness_21.jpg,Animals,0,lioness,0,77,77,48,330.516377372,nV_V,2,330.521384248,331.819117309,1,2,0.801971837878,332.641659341,3,0,0.17058186885,5,6.0,32,bw,99.7826903709,2019_jun_14_1218,010,256,20,5,jesica,Experiment_EEG_version,20,
Nonliving_Things,../experiment_stimuli/bw_bc_bl/Nonliving_Things/Buildings/cathedral_21.jpg,Buildings,0,cathedral,0,78,78,14,334.545147505,nV_V,1,334.550138467,335.807786899,1,1,0.751863954123,336.580210431,3,0,0.280829963274,5,6.5,32,bw,99.7826903709,2019_jun_14_1218,010,256,20,5,jesica,Experiment_EEG_version,20,
Living_Things,../experiment_stimuli/bw_bc_bl/Living_Things/Marine_creatures/crab_19.jpg,Marine_creatures,0,crab,0,79,79,21,338.593945757,nV_V,2,338.598976301,339.826524627,0,1,1.64379482297,341.49087914,1,1,0.230725703295,5,6.0,32,bw,99.7826903709,2019_jun_14_1218,010,256,20,5,jesica,Experiment_EEG_version,20,
Nonliving_Things,../experiment_stimuli/bw_bc_bl/Nonliving_Things/Vehicles/ship_25.jpg,Vehicles,0,ship,0,80,80,76,343.454506661,nV_V,1,343.459437042,344.707139402,1,1,0.571474612691,345.299164889,1,1,0.401112233289,5,6.0,32,bw,99.7826903709,2019_jun_14_1218,010,256,20,5,jesica,Experiment_EEG_version,20,
Nonliving_Things,../experiment_stimuli/bw_bc_bl/Nonliving_Things/Buildings/factory_13.jpg,Buildings,0,factory,0,81,81,28,347.43318144,V_nV,2,347.438225857,348.725876227,1,2,0.681711376179,349.428141674,2,0,0.230716522783,5,6.0,32,bw,99.7826903709,2019_jun_14_1218,010,256,20,5,jesica,Experiment_EEG_version,20,
Living_Things,../experiment_stimuli/bw_bc_bl/Living_Things/Marine_creatures/whale_7.jpg,Marine_creatures,0,whale,0,82,82,94,351.391763608,V_nV,1,351.398236726,352.66443805,1,1,1.02244967269,353.707507082,3,0,0.310908314306,5,6.0,32,bw,99.7826903709,2019_jun_14_1218,010,256,20,5,jesica,Experiment_EEG_version,20,
Living_Things,../experiment_stimuli/bw_bc_bl/Living_Things/Birds/goose_7.jpg,Birds,0,goose,0,83,83,34,355.761265316,V_nV,1,355.766231414,357.0038697,1,1,5.01112263184,362.035553654,1,1,0.852076631505,5,7.0,32,bw,99.7826903709,2019_jun_14_1218,010,256,20,5,jesica,Experiment_EEG_version,20,
Living_Things,../experiment_stimuli/bw_bc_bl/Living_Things/Birds/barn-owl_7.jpg,Birds,0,barn-owl,0,84,84,4,364.620526596,nV_V,2,364.625466905,365.88318026,0,1,0.511183201801,366.414928657,2,0,1.96433848003,5,6.0,32,bw,99.7826903709,2019_jun_14_1218,010,256,20,5,jesica,Experiment_EEG_version,20,
Nonliving_Things,../experiment_stimuli/bw_bc_bl/Nonliving_Things/Furniture/armchair_14.jpg,Furniture,0,armchair,0,85,85,2,370.112472567,nV_V,1,370.117383715,371.355075564,1,1,0.361014036462,371.736650945,1,1,0.641612668056,5,6.0,32,bw,99.7826903709,2019_jun_14_1218,010,256,20,5,jesica,Experiment_EEG_version,20,
Living_Things,../experiment_stimuli/bw_bc_bl/Living_Things/Marine_creatures/lobster_10.jpg,Marine_creatures,0,lobster,0,86,86,49,374.111161841,V_nV,1,374.117883387,375.363796236,0,2,4.96101592062,380.345374166,1,1,0.47108379472,5,6.5,32,bw,99.7826903709,2019_jun_14_1218,010,256,20,5,jesica,Experiment_EEG_version,20,
Living_Things,../experiment_stimuli/bw_bc_bl/Living_Things/Insects/butterfly_21.jpg,Insects,0,butterfly,0,87,87,10,382.549513479,V_nV,1,382.554477288,383.822180493,1,1,4.52005129633,388.362816829,3,0,1.24293235736,5,7.0,32,bw,99.7826903709,2019_jun_14_1218,010,256,20,5,jesica,Experiment_EEG_version,20,
Nonliving_Things,../experiment_stimuli/bw_bc_bl/Nonliving_Things/Vehicles/tractor_9.jpg,Vehicles,0,tractor,0,88,88,86,391.338625083,nV_V,1,391.343567043,392.591248245,1,1,9.47081789747,402.08263072,1,1,0.23072103411,5,7.5,32,bw,99.7826903709,2019_jun_14_1218,010,256,20,5,jesica,Experiment_EEG_version,20,
Nonliving_Things,../experiment_stimuli/bw_bc_bl/Nonliving_Things/Furniture/Chest-of-drawers_17.jpg,Furniture,0,Chest-of-drawers,0,89,89,0,404.046245253,V_nV,2,404.051240463,405.318917255,0,1,0.320929716341,405.660415925,1,1,0.290849436074,5,6.5,32,bw,99.7826903709,2019_jun_14_1218,010,256,20,5,jesica,Experiment_EEG_version,20,
Living_Things,../experiment_stimuli/bw_bc_bl/Living_Things/Marine_creatures/shark_12.jpg,Marine_creatures,0,shark,0,90,90,75,407.68416316,nV_V,2,407.689141916,408.986891879,1,2,0.85208395496,409.85952767,2,0,0.451219507493,5,6.0,32,bw,99.7826903709,2019_jun_14_1218,010,256,20,5,jesica,Experiment_EEG_version,20,
Nonliving_Things,../experiment_stimuli/bw_bc_bl/Nonliving_Things/Musical_Inst/piano__26.jpg,Musical_Inst,0,piano,0,91,91,62,412.043635229,nV_V,1,412.048651834,413.346373835,0,2,0.591515032575,413.958457644,2,0,0.21068349015,5,6.0,32,bw,99.7826903709,2019_jun_14_1218,010,256,20,5,jesica,Experiment_EEG_version,20,
Living_Things,../experiment_stimuli/bw_bc_bl/Living_Things/Insects/dragonfly_4.jpg,Insects,0,dragonfly,0,92,92,24,415.91204652,V_nV,1,415.917016073,417.21479858,1,1,1.48347043479,418.718824217,2,0,1.79412739165,5,7.5,32,bw,99.7826903709,2019_jun_14_1218,010,256,20,5,jesica,Experiment_EEG_version,20,
Nonliving_Things,../experiment_stimuli/bw_bc_bl/Nonliving_Things/Musical_Inst/tuba_10.jpg,Musical_Inst,0,tuba,0,93,93,89,422.245821607,nV_V,1,422.250787446,423.518487677,1,1,5.66255911067,429.201599414,1,1,0.200647171587,5,6.0,32,bw,99.7826903709,2019_jun_14_1218,010,256,20,5,jesica,Experiment_EEG_version,20,
Nonliving_Things,../experiment_stimuli/bw_bc_bl/Nonliving_Things/Furniture/filling-cabinet_1.jpg,Furniture,0,filling-cabinet,0,94,94,29,431.135142569,nV_V,1,431.140045052,432.41785315,1,1,0.661662941333,433.100050324,1,1,0.210673967842,5,6.0,32,bw,99.7826903709,2019_jun_14_1218,010,256,20,5,jesica,Experiment_EEG_version,20,
Nonliving_Things,../experiment_stimuli/bw_bc_bl/Nonliving_Things/Buildings/granary_1.jpg,Buildings,0,granary,0,95,95,35,435.053671649,V_nV,2,435.05872622,436.3564013,0,1,16.6063458258,452.983336072,1,1,0.190476700664,5,7.0,32,bw,99.7826903709,2019_jun_14_1218,010,256,20,5,jesica,Experiment_EEG_version,20,
