category,probe_path,subcategory,fixation_duration,label,trials.thisRepN,trials.thisTrialN,trials.thisN,trials.thisIndex,image_onset_time,response_window,correctAns,probe_onset,discrim_resptime,response.corr,response.keys,response.rt,visible_resptime,visible.keys,visible.corr,visible.rt,probeFrames,jitter2,n_square,experiment_color,frameRate,date,session,image_size,premask_dur,probeFrames,participant,expName,postmask_dur,
Nonliving_Things,../experiment_stimuli/bw_bc_bl/Nonliving_Things/Vehicles/van_14.jpg,Vehicles,0,van,0,0,0,91,3.72301069205,nV_V,1,3.74364826875,5.00567062316,1,1,1.85426415829,6.8907650318,3,0,0.280823654728,5,6.0,32,bw,99.7871373368,2019_may_29_1044,016,256,20,5,aingere,Experiment_EEG_version,20,
Living_Things,../experiment_stimuli/bw_bc_bl/Living_Things/Marine_creatures/pomfret_17.jpg,Marine_creatures,0,pomfret,0,1,1,65,8.9042306093,nV_V,2,8.90898911259,10.1468467119,1,2,0.471258735517,10.6386529468,1,1,0.361001574202,5,6.5,32,bw,99.7871373368,2019_may_29_1044,016,256,20,5,aingere,Experiment_EEG_version,20,
Living_Things,../experiment_stimuli/bw_bc_bl/Living_Things/Birds/goldfinch_13.jpg,Birds,0,goldfinch,0,2,2,33,12.7325532597,nV_V,2,12.7374915273,13.9851779894,1,2,0.541405930417,14.5471295239,1,1,0.371024223743,5,7.0,32,bw,99.7871373368,2019_may_29_1044,016,256,20,5,aingere,Experiment_EEG_version,20,
Living_Things,../experiment_stimuli/bw_bc_bl/Living_Things/Birds/rooster_15.jpg,Birds,0,rooster,0,3,3,70,16.6510694488,V_nV,1,16.6559400593,17.9337577967,1,1,0.801961296471,18.7562930619,1,1,0.32092401688,5,6.0,32,bw,99.7871373368,2019_may_29_1044,016,256,20,5,aingere,Experiment_EEG_version,20,
Living_Things,../experiment_stimuli/bw_bc_bl/Living_Things/Birds/duck_15.jpg,Birds,0,duck,0,4,4,26,20.8101135427,V_nV,1,20.8150874265,22.1128465512,1,1,0.571489428403,22.7048921098,1,1,0.421138713136,5,6.0,32,bw,99.7871373368,2019_may_29_1044,016,256,20,5,aingere,Experiment_EEG_version,20,
Living_Things,../experiment_stimuli/bw_bc_bl/Living_Things/Animals/cheetah_4.jpg,Animals,0,cheetah,0,5,5,16,24.8589133811,V_nV,1,24.8638286341,26.1917216429,1,1,0.481271987082,26.6935816624,2,0,0.270817963639,5,6.0,32,bw,99.7871373368,2019_may_29_1044,016,256,20,5,aingere,Experiment_EEG_version,20,
Living_Things,../experiment_stimuli/bw_bc_bl/Living_Things/Birds/raven_20.jpg,Birds,0,raven,0,6,6,67,28.6972687896,nV_V,2,28.7020664241,30.020032594,1,2,0.621574699413,30.662165781,2,0,0.471312753856,5,6.0,32,bw,99.7871373368,2019_may_29_1044,016,256,20,5,aingere,Experiment_EEG_version,20,
Nonliving_Things,../experiment_stimuli/bw_bc_bl/Nonliving_Things/Kitchen_Uten/cup_11.jpg,Kitchen_Uten,0,cup,0,7,7,22,32.8663161276,V_nV,2,32.8716358561,34.1790724287,1,2,0.751844311366,34.9514747276,3,0,0.34098232328,5,7.5,32,bw,99.7871373368,2019_may_29_1044,016,256,20,5,aingere,Experiment_EEG_version,20,
Living_Things,../experiment_stimuli/bw_bc_bl/Living_Things/Animals/tapir_8.jpg,Animals,0,tapir,0,8,8,82,37.0253605789,nV_V,2,37.0312540659,38.3080461302,1,2,2.00458117458,40.3332023709,1,1,0.411118747666,5,6.5,32,bw,99.7871373368,2019_may_29_1044,016,256,20,5,aingere,Experiment_EEG_version,20,
Nonliving_Things,../experiment_stimuli/bw_bc_bl/Nonliving_Things/Furniture/rocking-chair_20.jpg,Furniture,0,rocking-chair,0,9,9,69,42.4772050981,nV_V,1,42.4821236252,43.7799401854,1,1,0.681715060258,44.482196782,3,0,0.391063207993,5,6.0,32,bw,99.7871373368,2019_may_29_1044,016,256,20,5,aingere,Experiment_EEG_version,20,
Nonliving_Things,../experiment_stimuli/bw_bc_bl/Nonliving_Things/Buildings/cathedral_23.jpg,Buildings,0,cathedral,0,10,10,14,46.6061880435,nV_V,1,46.6111242888,47.8788555162,1,1,1.5235588795,49.4229738421,3,0,0.371030795155,5,6.0,32,bw,99.7871373368,2019_may_29_1044,016,256,20,5,aingere,Experiment_EEG_version,20,
Nonliving_Things,../experiment_stimuli/bw_bc_bl/Nonliving_Things/Buildings/factory_2.jpg,Buildings,0,factory,0,11,11,28,51.5268790906,V_nV,2,51.5317572653,52.7694801895,1,2,1.10262362589,53.892674491,2,0,2.57583033573,5,7.5,32,bw,99.7871373368,2019_may_29_1044,016,256,20,5,aingere,Experiment_EEG_version,20,
Living_Things,../experiment_stimuli/bw_bc_bl/Living_Things/Insects/dragonfly_8.jpg,Insects,0,dragonfly,0,12,12,24,58.2013887686,nV_V,2,58.2062112822,59.433966398,0,1,1.31308720587,60.7676307228,1,1,0.350991450716,5,6.5,32,bw,99.7871373368,2019_may_29_1044,016,256,20,5,aingere,Experiment_EEG_version,20,
Nonliving_Things,../experiment_stimuli/bw_bc_bl/Nonliving_Things/Furniture/couch_8.jpg,Furniture,0,couch,0,13,13,19,62.8514914804,V_nV,2,62.8562575285,64.1041289878,1,2,0.832050865749,64.9567338789,2,0,0.340983571485,5,6.5,32,bw,99.7871373368,2019_may_29_1044,016,256,20,5,aingere,Experiment_EEG_version,20,
Nonliving_Things,../experiment_stimuli/bw_bc_bl/Nonliving_Things/Furniture/table_25.jpg,Furniture,0,table,0,14,14,81,67.0305829451,V_nV,2,67.0360713329,68.2731840289,1,2,0.922245089198,69.2159713614,2,0,0.391068782657,5,6.0,32,bw,99.7871373368,2019_may_29_1044,016,256,20,5,aingere,Experiment_EEG_version,20,
Nonliving_Things,../experiment_stimuli/bw_bc_bl/Nonliving_Things/Furniture/chair_18.jpg,Furniture,0,chair,0,15,15,15,71.3399519052,V_nV,2,71.3450327122,72.5725249106,1,2,1.17278697458,73.7658679669,2,0,5.10131686623,5,8.0,32,bw,99.7871373368,2019_may_29_1044,016,256,20,5,aingere,Experiment_EEG_version,20,
Living_Things,../experiment_stimuli/bw_bc_bl/Living_Things/Birds/kiwi_5.jpg,Birds,0,kiwi,0,16,16,44,80.6000770906,V_nV,1,80.6055588955,81.8326573856,1,1,0.711807324551,82.5650092992,1,1,0.340996255632,5,7.0,32,bw,99.7871373368,2019_may_29_1044,016,256,20,5,aingere,Experiment_EEG_version,20,
Nonliving_Things,../experiment_stimuli/bw_bc_bl/Nonliving_Things/Musical_Inst/saxophone_14.jpg,Musical_Inst,0,saxophone,0,17,17,72,84.6388568918,nV_V,1,84.6437484534,85.8914902755,0,2,1.05254988465,86.964600719,1,1,0.310933855129,5,8.0,32,bw,99.7871373368,2019_may_29_1044,016,256,20,5,aingere,Experiment_EEG_version,20,
Nonliving_Things,../experiment_stimuli/bw_bc_bl/Nonliving_Things/Kitchen_Uten/saucepan_15.jpg,Kitchen_Uten,0,saucepan,0,18,18,71,89.0083728665,V_nV,2,89.0138909265,90.2810247114,1,2,0.731820455054,91.0334049929,3,0,0.350988435326,5,6.0,32,bw,99.7871373368,2019_may_29_1044,016,256,20,5,aingere,Experiment_EEG_version,20,
Living_Things,../experiment_stimuli/bw_bc_bl/Living_Things/Animals/elephant_2.jpg,Animals,0,elephant,0,19,19,27,93.1172993248,nV_V,2,93.1221052299,94.3699139159,0,1,1.03248457052,95.4229494135,1,1,0.310917862924,5,6.0,32,bw,99.7871373368,2019_may_29_1044,016,256,20,5,aingere,Experiment_EEG_version,20,
Nonliving_Things,../experiment_stimuli/bw_bc_bl/Nonliving_Things/Vehicles/motorbike_11.jpg,Vehicles,0,motorbike,0,20,20,54,97.4667451845,V_nV,2,97.4730579588,98.7293871657,1,2,0.581522931112,99.33148499,3,0,0.340815133881,5,6.5,32,bw,99.7871373368,2019_may_29_1044,016,256,20,5,aingere,Experiment_EEG_version,20,
Living_Things,../experiment_stimuli/bw_bc_bl/Living_Things/Animals/cat_5.jpg,Animals,0,cat,0,21,21,13,101.405315376,nV_V,2,101.410117007,102.647907543,1,2,0.942282065284,103.610738374,1,1,0.320921599399,5,6.0,32,bw,99.7871373368,2019_may_29_1044,016,256,20,5,aingere,Experiment_EEG_version,20,
Nonliving_Things,../experiment_stimuli/bw_bc_bl/Nonliving_Things/Kitchen_Uten/pot_1.jpg,Kitchen_Uten,0,pot,0,22,22,66,105.664573798,V_nV,2,105.6693898,106.927215215,1,2,0.641626506811,107.589389307,3,0,0.340960797155,5,6.5,32,bw,99.7871373368,2019_may_29_1044,016,256,20,5,aingere,Experiment_EEG_version,20,
Living_Things,../experiment_stimuli/bw_bc_bl/Living_Things/Marine_creatures/killer-whale_17.jpg,Marine_creatures,0,killer-whale,0,23,23,43,109.663262914,nV_V,2,109.669600132,110.895836205,1,2,0.531204632949,111.447788707,1,1,0.33096000459,5,7.0,32,bw,99.7871373368,2019_may_29_1044,016,256,20,5,aingere,Experiment_EEG_version,20,
Nonliving_Things,../experiment_stimuli/bw_bc_bl/Nonliving_Things/Vehicles/plane_20.jpg,Vehicles,0,plane,0,24,24,64,113.511628808,nV_V,1,113.518088474,114.774272104,0,2,1.15311834263,115.947972742,1,1,0.411118818913,5,6.5,32,bw,99.7871373368,2019_may_29_1044,016,256,20,5,aingere,Experiment_EEG_version,20,
Nonliving_Things,../experiment_stimuli/bw_bc_bl/Nonliving_Things/Furniture/sofa_1.jpg,Furniture,0,sofa,0,25,25,78,118.091590399,nV_V,1,118.096505634,119.374271379,1,1,0.952297764132,120.347122424,2,0,0.300881751115,5,6.5,32,bw,99.7871373368,2019_may_29_1044,016,256,20,5,aingere,Experiment_EEG_version,20,
Living_Things,../experiment_stimuli/bw_bc_bl/Living_Things/Marine_creatures/whale_4.jpg,Marine_creatures,0,whale,0,26,26,94,122.380906876,V_nV,1,122.387288638,123.653574555,1,1,1.00239944854,124.686852915,2,0,0.290878860746,5,6.0,32,bw,99.7871373368,2019_may_29_1044,016,256,20,5,aingere,Experiment_EEG_version,20,
Living_Things,../experiment_stimuli/bw_bc_bl/Living_Things/Marine_creatures/manatee_0.jpg,Marine_creatures,0,manatee,0,27,27,52,126.710317699,nV_V,2,126.715036903,127.972984311,1,2,1.41333424393,129.406866321,2,0,0.350992462132,5,6.0,32,bw,99.7871373368,2019_may_29_1044,016,256,20,5,aingere,Experiment_EEG_version,20,
Living_Things,../experiment_stimuli/bw_bc_bl/Living_Things/Marine_creatures/sperm-whale_23.jpg,Marine_creatures,0,sperm-whale,0,28,28,80,131.490720575,V_nV,1,131.495474364,132.743334861,1,1,0.661499045091,133.4253888,3,0,0.350984285353,5,6.5,32,bw,99.7871373368,2019_may_29_1044,016,256,20,5,aingere,Experiment_EEG_version,20,
Living_Things,../experiment_stimuli/bw_bc_bl/Living_Things/Animals/turtle_8.jpg,Animals,0,turtle,0,29,29,90,135.50944319,V_nV,1,135.514772948,136.742032113,1,1,0.942291658837,137.704896481,1,1,0.320949257119,5,6.0,32,bw,99.7871373368,2019_may_29_1044,016,256,20,5,aingere,Experiment_EEG_version,20,
Nonliving_Things,../experiment_stimuli/bw_bc_bl/Nonliving_Things/Kitchen_Uten/frying-pan_9.jpg,Kitchen_Uten,0,frying-pan,0,30,30,31,139.758690646,nV_V,1,139.765266669,141.011306613,1,1,1.20285110781,142.234727487,3,0,0.461248638807,5,6.0,32,bw,99.7871373368,2019_may_29_1044,016,256,20,5,aingere,Experiment_EEG_version,20,
Living_Things,../experiment_stimuli/bw_bc_bl/Living_Things/Marine_creatures/crab_0.jpg,Marine_creatures,0,crab,0,31,31,21,144.428841928,nV_V,2,144.433703772,145.661428171,1,2,0.80197271402,146.483949879,2,0,0.320930076996,5,6.5,32,bw,99.7871373368,2019_may_29_1044,016,256,20,5,aingere,Experiment_EEG_version,20,
Living_Things,../experiment_stimuli/bw_bc_bl/Living_Things/Birds/sparrow_17.jpg,Birds,0,sparrow,0,32,32,79,148.537795766,V_nV,1,148.543580623,149.770352497,1,1,0.86210384476,150.652992612,1,1,0.290857341839,5,7.0,32,bw,99.7871373368,2019_may_29_1044,016,256,20,5,aingere,Experiment_EEG_version,20,
Living_Things,../experiment_stimuli/bw_bc_bl/Living_Things/Animals/hippopotamus_15.jpg,Animals,0,hippopotamus,0,33,33,39,152.676770783,V_nV,1,152.68157765,153.93941414,1,1,0.471249250928,154.431224897,2,0,0.250782156596,5,6.0,32,bw,99.7871373368,2019_may_29_1044,016,256,20,5,aingere,Experiment_EEG_version,20,
Living_Things,../experiment_stimuli/bw_bc_bl/Living_Things/Birds/barn-owl_3.jpg,Birds,0,barn-owl,0,34,34,4,156.414897352,V_nV,1,156.419700863,157.667516202,1,1,0.731826225994,158.419905115,2,0,0.310909126187,5,6.0,32,bw,99.7871373368,2019_may_29_1044,016,256,20,5,aingere,Experiment_EEG_version,20,
Living_Things,../experiment_stimuli/bw_bc_bl/Living_Things/Animals/giraffe_17.jpg,Animals,0,giraffe,0,35,35,32,160.463701108,nV_V,2,160.468605579,161.706301199,0,1,0.882144753588,162.609011662,1,1,0.270810332149,5,6.0,32,bw,99.7871373368,2019_may_29_1044,016,256,20,5,aingere,Experiment_EEG_version,20,
Living_Things,../experiment_stimuli/bw_bc_bl/Living_Things/Animals/armadillo_24.jpg,Animals,0,armadillo,0,36,36,1,164.612756469,nV_V,2,164.617707143,165.885381954,1,2,2.55594363576,168.461891521,1,1,0.691757807275,5,6.5,32,bw,99.7871373368,2019_may_29_1044,016,256,20,5,aingere,Experiment_EEG_version,20,
Nonliving_Things,../experiment_stimuli/bw_bc_bl/Nonliving_Things/Kitchen_Uten/teapot_25.jpg,Kitchen_Uten,0,teapot,0,37,37,83,170.886356325,V_nV,2,170.892118667,172.16904803,1,2,0.771737538045,172.971363344,3,0,0.290857984917,5,6.5,32,bw,99.7871373368,2019_may_29_1044,016,256,20,5,aingere,Experiment_EEG_version,20,
Nonliving_Things,../experiment_stimuli/bw_bc_bl/Nonliving_Things/Musical_Inst/guitar_13.jpg,Musical_Inst,0,guitar,0,38,38,36,174.995288569,V_nV,2,175.001389782,176.25793185,1,2,0.701781584881,176.98027481,3,0,0.280844147317,5,6.0,32,bw,99.7871373368,2019_may_29_1044,016,256,20,5,aingere,Experiment_EEG_version,20,
Nonliving_Things,../experiment_stimuli/bw_bc_bl/Nonliving_Things/Furniture/armchair_10.jpg,Furniture,0,armchair,0,39,39,2,178.994051323,nV_V,1,179.000865199,180.236591103,1,1,2.42550387979,182.682649309,2,0,0.471240754938,5,6.0,32,bw,99.7871373368,2019_may_29_1044,016,256,20,5,aingere,Experiment_EEG_version,20,
Living_Things,../experiment_stimuli/bw_bc_bl/Living_Things/Animals/lioness_17.jpg,Animals,0,lioness,0,40,40,48,184.886793099,nV_V,2,184.89164577,186.119370293,0,1,0.812000668142,186.951944113,1,1,0.350983807817,5,6.5,32,bw,99.7871373368,2019_may_29_1044,016,256,20,5,aingere,Experiment_EEG_version,20,
Nonliving_Things,../experiment_stimuli/bw_bc_bl/Nonliving_Things/Buildings/granary_21.jpg,Buildings,0,granary,0,41,41,35,189.035822728,V_nV,2,189.040710391,190.278413793,1,2,0.872140693944,191.171106636,2,0,0.401102142874,5,6.5,32,bw,99.7871373368,2019_may_29_1044,016,256,20,5,aingere,Experiment_EEG_version,20,
Nonliving_Things,../experiment_stimuli/bw_bc_bl/Nonliving_Things/Vehicles/boat_11.jpg,Vehicles,0,boat,0,42,42,7,193.305095574,nV_V,1,193.309999639,194.537676993,1,1,0.67168448912,195.229918357,2,0,0.310887517408,5,6.0,32,bw,99.7871373368,2019_may_29_1044,016,256,20,5,aingere,Experiment_EEG_version,20,
Nonliving_Things,../experiment_stimuli/bw_bc_bl/Nonliving_Things/Kitchen_Uten/small-saucepan_11.jpg,Kitchen_Uten,0,small-saucepan,0,43,43,77,197.273732857,nV_V,1,197.27877095,198.506303096,1,1,0.771743199555,199.298602937,1,1,0.300904393662,5,7.0,32,bw,99.7871373368,2019_may_29_1044,016,256,20,5,aingere,Experiment_EEG_version,20,
Living_Things,../experiment_stimuli/bw_bc_bl/Living_Things/Marine_creatures/shark_2.jpg,Marine_creatures,0,shark,0,44,44,75,201.332566751,nV_V,2,201.337398242,202.575151403,1,2,0.701753614936,203.297465295,1,1,0.290853375802,5,6.5,32,bw,99.7871373368,2019_may_29_1044,016,256,20,5,aingere,Experiment_EEG_version,20,
Nonliving_Things,../experiment_stimuli/bw_bc_bl/Nonliving_Things/Musical_Inst/trumpet_10.jpg,Musical_Inst,0,trumpet,0,45,45,88,205.321213669,V_nV,2,205.326191605,206.573843722,1,2,0.902219740441,207.496615965,2,0,0.491353188641,5,6.0,32,bw,99.7871373368,2019_may_29_1044,016,256,20,5,aingere,Experiment_EEG_version,20,
Living_Things,../experiment_stimuli/bw_bc_bl/Living_Things/Animals/tiger_3.jpg,Animals,0,tiger,0,46,46,84,209.720782676,V_nV,1,209.72565538,210.963388808,1,1,1.45338825649,212.437336026,1,1,0.290892920224,5,7.5,32,bw,99.7871373368,2019_may_29_1044,016,256,20,5,aingere,Experiment_EEG_version,20,
Nonliving_Things,../experiment_stimuli/bw_bc_bl/Nonliving_Things/Kitchen_Uten/coking-pot_0.jpg,Kitchen_Uten,0,coking-pot,0,47,47,18,214.46108984,V_nV,2,214.46801232,215.733758527,1,2,2.8562776316,218.61060933,2,0,0.791968534002,5,8.0,32,bw,99.7871373368,2019_may_29_1044,016,256,20,5,aingere,Experiment_EEG_version,20,
Nonliving_Things,../experiment_stimuli/bw_bc_bl/Nonliving_Things/Buildings/house_22.jpg,Buildings,0,house,0,48,48,41,221.135600472,V_nV,2,221.140489831,222.39824345,1,2,0.842062568292,223.260870558,3,0,0.451214338886,5,6.0,32,bw,99.7871373368,2019_may_29_1044,016,256,20,5,aingere,Experiment_EEG_version,20,
Nonliving_Things,../experiment_stimuli/bw_bc_bl/Nonliving_Things/Musical_Inst/piano__6.jpg,Musical_Inst,0,piano,0,49,49,62,225.444971609,nV_V,1,225.44997712,226.687576851,0,2,1.12269210932,227.840863958,1,1,0.350991634885,5,6.0,32,bw,99.7871373368,2019_may_29_1044,016,256,20,5,aingere,Experiment_EEG_version,20,
Living_Things,../experiment_stimuli/bw_bc_bl/Living_Things/Marine_creatures/narwhal_12.jpg,Marine_creatures,0,narwhal,0,50,50,55,229.924707483,V_nV,1,229.929610969,231.177332325,1,1,1.51350895991,232.711405764,1,1,0.391067594988,5,6.0,32,bw,99.7871373368,2019_may_29_1044,016,256,20,5,aingere,Experiment_EEG_version,20,
Nonliving_Things,../experiment_stimuli/bw_bc_bl/Nonliving_Things/Vehicles/ship_15.jpg,Vehicles,0,ship,0,51,51,76,234.835385677,nV_V,1,234.84027275,236.118073066,1,1,1.35317081609,237.491796577,2,0,0.330939399777,5,6.5,32,bw,99.7871373368,2019_may_29_1044,016,256,20,5,aingere,Experiment_EEG_version,20,
Nonliving_Things,../experiment_stimuli/bw_bc_bl/Nonliving_Things/Vehicles/train_3.jpg,Vehicles,0,train,0,52,52,87,239.555643902,nV_V,1,239.560560043,240.828312048,1,1,1.10265802778,241.951535601,2,0,0.350990014384,5,8.0,32,bw,99.7871373368,2019_may_29_1044,016,256,20,5,aingere,Experiment_EEG_version,20,
Nonliving_Things,../experiment_stimuli/bw_bc_bl/Nonliving_Things/Vehicles/tractor_14.jpg,Vehicles,0,tractor,0,53,53,86,244.035385238,V_nV,2,244.040345558,245.29804626,1,2,0.641638965113,245.960213006,3,0,0.280830609612,5,6.5,32,bw,99.7871373368,2019_may_29_1044,016,256,20,5,aingere,Experiment_EEG_version,20,
Nonliving_Things,../experiment_stimuli/bw_bc_bl/Nonliving_Things/Furniture/Chest-of-drawers_23.jpg,Furniture,0,Chest-of-drawers,0,54,54,0,247.973952095,nV_V,1,247.978840003,249.20652977,1,1,0.81201649108,250.039103527,1,1,0.280850090552,5,6.0,32,bw,99.7871373368,2019_may_29_1044,016,256,20,5,aingere,Experiment_EEG_version,20,
Nonliving_Things,../experiment_stimuli/bw_bc_bl/Nonliving_Things/Kitchen_Uten/fondue_9.jpg,Kitchen_Uten,0,fondue,0,55,55,30,252.052810623,nV_V,1,252.059999776,253.315476976,1,1,0.811990194255,254.148017985,3,0,0.401080195792,5,7.0,32,bw,99.7871373368,2019_may_29_1044,016,256,20,5,aingere,Experiment_EEG_version,20,
Living_Things,../experiment_stimuli/bw_bc_bl/Living_Things/Marine_creatures/dolphin_3.jpg,Marine_creatures,0,dolphin,0,56,56,23,256.282006908,nV_V,2,256.286891192,257.524609466,1,2,0.68171649985,258.226886205,1,1,0.360999277094,5,6.0,32,bw,99.7871373368,2019_may_29_1044,016,256,20,5,aingere,Experiment_EEG_version,20,
Living_Things,../experiment_stimuli/bw_bc_bl/Living_Things/Birds/magpie_0.jpg,Birds,0,magpie,0,57,57,51,260.320792266,nV_V,2,260.326954979,261.583436078,1,2,0.942291956162,262.546310588,1,1,0.260792396497,5,6.0,32,bw,99.7871373368,2019_may_29_1044,016,256,20,5,aingere,Experiment_EEG_version,20,
Living_Things,../experiment_stimuli/bw_bc_bl/Living_Things/Marine_creatures/lobster_24.jpg,Marine_creatures,0,lobster,0,58,58,49,264.539965232,V_nV,1,264.545017723,265.822648843,1,1,0.932288497686,266.775505543,3,0,0.300878612325,5,6.0,32,bw,99.7871373368,2019_may_29_1044,016,256,20,5,aingere,Experiment_EEG_version,20,
Living_Things,../experiment_stimuli/bw_bc_bl/Living_Things/Animals/rhino_25.jpg,Animals,0,rhino,0,59,59,68,268.809265826,V_nV,1,268.814140959,270.061870195,1,1,0.892203244846,270.97462092,1,1,0.280833568424,5,6.0,32,bw,99.7871373368,2019_may_29_1044,016,256,20,5,aingere,Experiment_EEG_version,20,
Nonliving_Things,../experiment_stimuli/bw_bc_bl/Nonliving_Things/Furniture/bookcase_22.jpg,Furniture,0,bookcase,0,60,60,8,272.988331028,nV_V,1,272.993239202,274.271019654,1,1,0.641615130473,274.933214133,3,0,0.280680551659,5,6.5,32,bw,99.7871373368,2019_may_29_1044,016,256,20,5,aingere,Experiment_EEG_version,20,
Living_Things,../experiment_stimuli/bw_bc_bl/Living_Things/Birds/penguin_13.jpg,Birds,0,penguin,0,61,61,61,276.946931974,nV_V,2,276.951858456,278.209584319,0,1,2.46560598956,280.695742097,1,1,0.471099629067,5,6.5,32,bw,99.7871373368,2019_may_29_1044,016,256,20,5,aingere,Experiment_EEG_version,20,
Living_Things,../experiment_stimuli/bw_bc_bl/Living_Things/Animals/horse_17.jpg,Animals,0,horse,0,62,62,40,282.899871666,nV_V,2,282.904817889,284.182582668,1,2,0.57147594355,284.774601043,3,0,0.310892573558,5,7.5,32,bw,99.7871373368,2019_may_29_1044,016,256,20,5,aingere,Experiment_EEG_version,20,
Living_Things,../experiment_stimuli/bw_bc_bl/Living_Things/Birds/seagull_19.jpg,Birds,0,seagull,0,63,63,74,286.818395479,nV_V,2,286.823329698,288.071019363,1,2,0.681722917361,288.773316346,3,0,0.471250431379,5,7.5,32,bw,99.7871373368,2019_may_29_1044,016,256,20,5,aingere,Experiment_EEG_version,20,
Nonliving_Things,../experiment_stimuli/bw_bc_bl/Nonliving_Things/Furniture/bed_13.jpg,Furniture,0,bed,0,64,64,5,290.977433103,nV_V,1,290.982387157,292.210017804,0,2,0.671698263614,292.902300363,1,1,0.38104978716,5,6.5,32,bw,99.7871373368,2019_may_29_1044,016,256,20,5,aingere,Experiment_EEG_version,20,
Nonliving_Things,../experiment_stimuli/bw_bc_bl/Nonliving_Things/Furniture/lamp_19.jpg,Furniture,0,lamp,0,65,65,46,295.016224386,nV_V,1,295.022446624,296.278866566,1,1,1.03246452566,297.341904804,3,0,0.771920174593,5,7.5,32,bw,99.7871373368,2019_may_29_1044,016,256,20,5,aingere,Experiment_EEG_version,20,
Living_Things,../experiment_stimuli/bw_bc_bl/Living_Things/Insects/butterfly_24.jpg,Insects,0,butterfly,0,66,66,10,299.846718695,V_nV,1,299.851608343,301.089322752,1,1,0.872121404624,301.982045907,2,0,0.541439892491,5,6.5,32,bw,99.7871373368,2019_may_29_1044,016,256,20,5,aingere,Experiment_EEG_version,20,
Nonliving_Things,../experiment_stimuli/bw_bc_bl/Nonliving_Things/Buildings/mill_20.jpg,Buildings,0,mill,0,67,67,53,304.256310889,nV_V,1,304.26139553,305.488889229,1,1,0.982365675271,306.491807546,1,1,0.290884815156,5,6.0,32,bw,99.7871373368,2019_may_29_1044,016,256,20,5,aingere,Experiment_EEG_version,20,
Living_Things,../experiment_stimuli/bw_bc_bl/Living_Things/Birds/hummingbird_16.jpg,Birds,0,hummingbird,0,68,68,42,308.515588731,V_nV,1,308.52186586,309.768191412,0,2,1.22288587759,311.011652149,1,1,0.320926892571,5,6.0,32,bw,99.7871373368,2019_may_29_1044,016,256,20,5,aingere,Experiment_EEG_version,20,
Living_Things,../experiment_stimuli/bw_bc_bl/Living_Things/Animals/zebra_20.jpg,Animals,0,zebra,0,69,69,95,313.065458698,V_nV,1,313.070505472,314.348150159,1,1,1.11264299019,315.481344467,2,0,0.2908558005,5,6.0,32,bw,99.7871373368,2019_may_29_1044,016,256,20,5,aingere,Experiment_EEG_version,20,
Nonliving_Things,../experiment_stimuli/bw_bc_bl/Nonliving_Things/Vehicles/car_14.jpg,Vehicles,0,car,0,70,70,11,317.505107879,V_nV,2,317.510464682,318.767762111,1,2,0.812028005952,319.600334879,3,0,0.721643018303,5,6.5,32,bw,99.7871373368,2019_may_29_1044,016,256,20,5,aingere,Experiment_EEG_version,20,
Living_Things,../experiment_stimuli/bw_bc_bl/Living_Things/Birds/goose_19.jpg,Birds,0,goose,0,71,71,34,322.055002368,V_nV,1,322.059989349,323.287582324,0,2,0.64163571666,323.949766957,1,1,0.320920403814,5,6.5,32,bw,99.7871373368,2019_may_29_1044,016,256,20,5,aingere,Experiment_EEG_version,20,
Living_Things,../experiment_stimuli/bw_bc_bl/Living_Things/Birds/partridge_6.jpg,Birds,0,partridge,0,72,72,59,326.003583874,nV_V,2,326.008652493,327.256211942,1,2,0.892172444612,328.168948762,2,0,0.340807224391,5,6.5,32,bw,99.7871373368,2019_may_29_1044,016,256,20,5,aingere,Experiment_EEG_version,20,
Nonliving_Things,../experiment_stimuli/bw_bc_bl/Nonliving_Things/Tools/hammer_18.jpg,Tools,0,hammer,0,73,73,37,330.242802189,nV_V,1,330.249234273,331.475380194,1,1,0.9022174438,332.398149264,1,1,0.2908617293,5,8.0,32,bw,99.7871373368,2019_may_29_1044,016,256,20,5,aingere,Experiment_EEG_version,20,
Nonliving_Things,../experiment_stimuli/bw_bc_bl/Nonliving_Things/Buildings/castle_8.jpg,Buildings,0,castle,0,74,74,12,334.421898725,V_nV,2,334.426967479,335.664488576,0,1,0.862126510125,336.557216377,1,1,0.371032238705,5,6.0,32,bw,99.7871373368,2019_may_29_1044,016,256,20,5,aingere,Experiment_EEG_version,20,
Nonliving_Things,../experiment_stimuli/bw_bc_bl/Nonliving_Things/Furniture/wardrobe_6.jpg,Furniture,0,wardrobe,0,75,75,93,338.661097434,V_nV,2,338.66717587,339.923750107,1,2,0.701751472196,340.646057999,3,0,0.701779302908,5,6.5,32,bw,99.7871373368,2019_may_29_1044,016,256,20,5,aingere,Experiment_EEG_version,20,
Nonliving_Things,../experiment_stimuli/bw_bc_bl/Nonliving_Things/Furniture/lectern_23.jpg,Furniture,0,lectern,0,76,76,47,343.08071633,nV_V,1,343.085802329,344.323318741,1,1,1.12250905926,345.466374243,2,0,0.350988402031,5,6.0,32,bw,99.7871373368,2019_may_29_1044,016,256,20,5,aingere,Experiment_EEG_version,20,
Living_Things,../experiment_stimuli/bw_bc_bl/Living_Things/Animals/cow_3.jpg,Animals,0,cow,0,77,77,20,347.550425915,V_nV,1,347.55562207,348.78300742,0,2,0.832028110279,349.635627815,1,1,0.310743839247,5,6.0,32,bw,99.7871373368,2019_may_29_1044,016,256,20,5,aingere,Experiment_EEG_version,20,
Living_Things,../experiment_stimuli/bw_bc_bl/Living_Things/Birds/toucan_0.jpg,Birds,0,toucan,0,78,78,85,351.679407631,nV_V,2,351.684637586,352.922020572,0,1,0.611553936964,353.554116752,1,1,0.310895028757,5,6.5,32,bw,99.7871373368,2019_may_29_1044,016,256,20,5,aingere,Experiment_EEG_version,20,
Nonliving_Things,../experiment_stimuli/bw_bc_bl/Nonliving_Things/Musical_Inst/violin_8.jpg,Musical_Inst,0,violin,0,79,79,92,355.597924554,V_nV,2,355.603297913,356.860582937,1,2,1.02228905098,357.903398615,2,0,0.310901025077,5,8.0,32,bw,99.7871373368,2019_may_29_1044,016,256,20,5,aingere,Experiment_EEG_version,20,
Nonliving_Things,../experiment_stimuli/bw_bc_bl/Nonliving_Things/Vehicles/bus_21.jpg,Vehicles,0,bus,0,80,80,9,359.947418353,nV_V,1,359.952602116,361.210024533,1,1,0.601538997609,361.832113774,3,0,0.330946496921,5,6.0,32,bw,99.7871373368,2019_may_29_1044,016,256,20,5,aingere,Experiment_EEG_version,20,
Nonliving_Things,../experiment_stimuli/bw_bc_bl/Nonliving_Things/Buildings/palace_23.jpg,Buildings,0,palace,0,81,81,58,363.905984404,nV_V,1,363.911300757,365.138566376,1,1,1.03252799832,366.191643858,1,1,0.3109330507,5,6.0,32,bw,99.7871373368,2019_may_29_1044,016,256,20,5,aingere,Experiment_EEG_version,20,
Living_Things,../experiment_stimuli/bw_bc_bl/Living_Things/Insects/scorpion_2.jpg,Insects,0,scorpion,0,82,82,73,368.235404942,nV_V,2,368.240720595,369.488025923,0,1,0.671693154611,370.180289795,1,1,0.280829271302,5,6.0,32,bw,99.7871373368,2019_may_29_1044,016,256,20,5,aingere,Experiment_EEG_version,20,
Living_Things,../experiment_stimuli/bw_bc_bl/Living_Things/Animals/lynx_17.jpg,Animals,0,lynx,0,83,83,50,372.194005681,V_nV,1,372.199649028,373.456652098,1,1,0.842059853952,374.319264499,2,0,0.310897393152,5,6.0,32,bw,99.7871373368,2019_may_29_1044,016,256,20,5,aingere,Experiment_EEG_version,20,
Nonliving_Things,../experiment_stimuli/bw_bc_bl/Nonliving_Things/Furniture/bedside-table_19.jpg,Furniture,0,bedside-table,0,84,84,6,376.36307088,nV_V,1,376.368408931,377.615690775,1,1,0.842066744808,378.47832836,2,0,0.270845463499,5,6.0,32,bw,99.7871373368,2019_may_29_1044,016,256,20,5,aingere,Experiment_EEG_version,20,
Living_Things,../experiment_stimuli/bw_bc_bl/Living_Things/Birds/pelican_10.jpg,Birds,0,pelican,0,85,85,60,380.482047209,V_nV,1,380.487331833,381.724628225,0,2,0.892004405614,382.637203509,1,1,0.32091877982,5,6.0,32,bw,99.7871373368,2019_may_29_1044,016,256,20,5,aingere,Experiment_EEG_version,20,
Nonliving_Things,../experiment_stimuli/bw_bc_bl/Nonliving_Things/Musical_Inst/drum_14.jpg,Musical_Inst,0,drum,0,86,86,25,384.691176431,nV_V,1,384.696490378,385.973866434,1,1,1.23291848181,387.227330685,2,0,0.310926114442,5,8.0,32,bw,99.7871373368,2019_may_29_1044,016,256,20,5,aingere,Experiment_EEG_version,20,
Living_Things,../experiment_stimuli/bw_bc_bl/Living_Things/Birds/ostrich_2.jpg,Birds,0,ostrich,0,87,87,56,389.271132798,V_nV,1,389.276486402,390.543810023,1,1,1.39325498277,391.957611557,3,0,1.70392664568,5,6.0,32,bw,99.7871373368,2019_may_29_1044,016,256,20,5,aingere,Experiment_EEG_version,20,
Nonliving_Things,../experiment_stimuli/bw_bc_bl/Nonliving_Things/Buildings/church_22.jpg,Buildings,0,church,0,88,88,17,395.394442532,V_nV,2,395.399932333,396.637046206,0,1,0.611560700228,397.269177649,1,1,0.30072665913,5,7.0,32,bw,99.7871373368,2019_may_29_1044,016,256,20,5,aingere,Experiment_EEG_version,20,
Nonliving_Things,../experiment_stimuli/bw_bc_bl/Nonliving_Things/Furniture/filling-cabinet_15.jpg,Furniture,0,filling-cabinet,0,89,89,29,399.302949015,nV_V,1,399.308299152,400.575607435,1,1,1.03250076552,401.628674756,1,1,0.260801396566,5,6.0,32,bw,99.7871373368,2019_may_29_1044,016,256,20,5,aingere,Experiment_EEG_version,20,
Living_Things,../experiment_stimuli/bw_bc_bl/Living_Things/Birds/owl_14.jpg,Birds,0,owl,0,90,90,57,403.622332046,V_nV,1,403.627868775,404.895004274,1,1,1.32310747961,406.238673553,1,1,0.290885010967,5,7.0,32,bw,99.7871373368,2019_may_29_1044,016,256,20,5,aingere,Experiment_EEG_version,20,
Living_Things,../experiment_stimuli/bw_bc_bl/Living_Things/Insects/ladybird_24.jpg,Insects,0,ladybird,0,91,91,45,408.262448675,V_nV,1,408.267977073,409.565154176,1,1,0.61158236512,410.197298521,2,0,0.290859296918,5,6.0,32,bw,99.7871373368,2019_may_29_1044,016,256,20,5,aingere,Experiment_EEG_version,20,
Nonliving_Things,../experiment_stimuli/bw_bc_bl/Nonliving_Things/Musical_Inst/tuba_19.jpg,Musical_Inst,0,tuba,0,92,92,89,412.221022508,nV_V,1,412.227056181,413.51374966,1,1,0.95229730499,414.486589788,2,0,0.340960880043,5,6.0,32,bw,99.7871373368,2019_may_29_1044,016,256,20,5,aingere,Experiment_EEG_version,20,
Living_Things,../experiment_stimuli/bw_bc_bl/Living_Things/Birds/pigeon_11.jpg,Birds,0,pigeon,0,93,93,63,416.560458004,nV_V,2,416.566070375,417.843150916,1,2,0.551424967358,418.415127104,2,0,0.371070944937,5,7.5,32,bw,99.7871373368,2019_may_29_1044,016,256,20,5,aingere,Experiment_EEG_version,20,
Living_Things,../experiment_stimuli/bw_bc_bl/Living_Things/Birds/hen_26.jpg,Birds,0,hen,0,94,94,38,420.529085979,nV_V,2,420.536299259,421.811777364,1,2,0.942276580259,422.774609775,2,0,0.401122480864,5,7.5,32,bw,99.7871373368,2019_may_29_1044,016,256,20,5,aingere,Experiment_EEG_version,20,
Nonliving_Things,../experiment_stimuli/bw_bc_bl/Nonliving_Things/Tools/axe_26.jpg,Tools,0,axe,0,95,95,3,424.908603449,V_nV,2,424.914691701,426.171254366,1,2,0.952288546134,427.144104148,2,0,0.371029254282,5,6.5,32,bw,99.7871373368,2019_may_29_1044,016,256,20,5,aingere,Experiment_EEG_version,20,
