category,probe_path,subcategory,fixation_duration,label,trials.thisRepN,trials.thisTrialN,trials.thisN,trials.thisIndex,image_onset_time,response_window,correctAns,probe_onset,discrim_resptime,response.corr,response.keys,response.rt,visible_resptime,visible.keys,visible.corr,visible.rt,probeFrames,jitter2,n_square,experiment_color,frameRate,date,session,image_size,premask_dur,probeFrames,participant,expName,postmask_dur,
Nonliving_Things,../experiment_stimuli/bw_bc_bl/Nonliving_Things/Buildings/factory_19.jpg,Buildings,0,factory,0,0,0,28,3.72056669334,nV_V,1,3.74184848263,5.00326653011,0,2,1.57364939526,6.60775152128,1,1,0.731829541735,5,6.0,32,bw,99.7788688517,2019_may_16_1618,002,256,20,5,aingere,Experiment_EEG_version,20,
Living_Things,../experiment_stimuli/bw_bc_bl/Living_Things/Animals/tiger_13.jpg,Animals,0,tiger,0,1,1,84,9.07221204601,nV_V,2,9.07706126582,10.3649193746,1,2,1.03250640479,11.4179608986,3,0,0.611557722674,5,6.5,32,bw,99.7788688517,2019_may_16_1618,002,256,20,5,aingere,Experiment_EEG_version,20,
Nonliving_Things,../experiment_stimuli/bw_bc_bl/Nonliving_Things/Musical_Inst/drum_3.jpg,Musical_Inst,0,drum,0,2,2,25,13.7623996836,nV_V,1,13.767756325,15.0250369841,1,1,0.592140380759,15.6377357246,2,0,0.761874708929,5,8.0,32,bw,99.7788688517,2019_may_16_1618,002,256,20,5,aingere,Experiment_EEG_version,20,
Nonliving_Things,../experiment_stimuli/bw_bc_bl/Nonliving_Things/Vehicles/car_24.jpg,Vehicles,0,car,0,3,3,11,18.131920549,nV_V,1,18.1372626979,19.3845130199,1,1,1.39327068173,20.7983361552,2,0,0.521418427234,5,6.0,32,bw,99.7788688517,2019_may_16_1618,002,256,20,5,aingere,Experiment_EEG_version,20,
Living_Things,../experiment_stimuli/bw_bc_bl/Living_Things/Marine_creatures/manatee_25.jpg,Marine_creatures,0,manatee,0,4,4,52,23.0526051264,V_nV,1,23.0573861742,24.2951883683,1,1,1.14255375718,25.4583197405,1,1,0.441181038856,5,8.0,32,bw,99.7788688517,2019_may_16_1618,002,256,20,5,aingere,Experiment_EEG_version,20,
Living_Things,../experiment_stimuli/bw_bc_bl/Living_Things/Animals/giraffe_13.jpg,Animals,0,giraffe,0,5,5,32,27.632537407,V_nV,1,27.6374256638,28.8951870793,1,1,1.89434615581,30.8100886289,1,1,0.451193094603,5,7.5,32,bw,99.7788688517,2019_may_16_1618,002,256,20,5,aingere,Experiment_EEG_version,20,
Nonliving_Things,../experiment_stimuli/bw_bc_bl/Nonliving_Things/Buildings/mill_11.jpg,Buildings,0,mill,0,6,6,53,32.9941898566,nV_V,1,32.9991089891,34.2768827722,1,1,1.03247396916,35.3298949997,2,0,0.882146994001,5,6.5,32,bw,99.7788688517,2019_may_16_1618,002,256,20,5,aingere,Experiment_EEG_version,20,
Living_Things,../experiment_stimuli/bw_bc_bl/Living_Things/Marine_creatures/crab_5.jpg,Marine_creatures,0,crab,0,7,7,21,37.9449722811,nV_V,2,37.9504224021,39.2176202128,1,2,1.07255806401,40.3107263548,1,1,0.521351071191,5,6.0,32,bw,99.7788688517,2019_may_16_1618,002,256,20,5,aingere,Experiment_EEG_version,20,
Nonliving_Things,../experiment_stimuli/bw_bc_bl/Nonliving_Things/Buildings/castle_16.jpg,Buildings,0,castle,0,8,8,12,42.5649951154,nV_V,1,42.569786148,43.8677318828,1,1,0.811992634088,44.700279798,3,0,0.501307324274,5,7.5,32,bw,99.7788688517,2019_may_16_1618,002,256,20,5,aingere,Experiment_EEG_version,20,
Nonliving_Things,../experiment_stimuli/bw_bc_bl/Nonliving_Things/Kitchen_Uten/saucepan_17.jpg,Kitchen_Uten,0,saucepan,0,9,9,71,46.9344900149,V_nV,2,46.9393380205,48.2171853705,1,2,0.711770434282,48.9494934652,3,0,0.451215789653,5,6.0,32,bw,99.7788688517,2019_may_16_1618,002,256,20,5,aingere,Experiment_EEG_version,20,
Living_Things,../experiment_stimuli/bw_bc_bl/Living_Things/Animals/cow_25.jpg,Animals,0,cow,0,10,10,20,51.1336237866,nV_V,2,51.1390668028,52.3962707828,1,2,0.972343649599,53.3891613676,1,1,0.461224499857,5,6.0,32,bw,99.7788688517,2019_may_16_1618,002,256,20,5,aingere,Experiment_EEG_version,20,
Nonliving_Things,../experiment_stimuli/bw_bc_bl/Nonliving_Things/Musical_Inst/saxophone_15.jpg,Musical_Inst,0,saxophone,0,11,11,72,55.5833036996,nV_V,1,55.5882829891,56.8760044568,1,1,0.912210973329,57.8087714405,2,0,0.651639073621,5,6.0,32,bw,99.7788688517,2019_may_16_1618,002,256,20,5,aingere,Experiment_EEG_version,20,
Living_Things,../experiment_stimuli/bw_bc_bl/Living_Things/Birds/ostrich_3.jpg,Birds,0,ostrich,0,12,12,56,60.193318008,nV_V,2,60.1981566154,61.4760060329,1,2,1.09261048003,62.5891526509,1,1,1.01244328974,5,7.0,32,bw,99.7788688517,2019_may_16_1618,002,256,20,5,aingere,Experiment_EEG_version,20,
Nonliving_Things,../experiment_stimuli/bw_bc_bl/Nonliving_Things/Vehicles/motorbike_12.jpg,Vehicles,0,motorbike,0,13,13,54,65.3344940778,V_nV,2,65.3393926205,66.6272067185,1,2,0.65166332887,67.2994230237,3,0,0.43116446014,5,7.0,32,bw,99.7788688517,2019_may_16_1618,002,256,20,5,aingere,Experiment_EEG_version,20,
Nonliving_Things,../experiment_stimuli/bw_bc_bl/Nonliving_Things/Vehicles/plane_10.jpg,Vehicles,0,plane,0,14,14,64,69.4634638509,nV_V,1,69.4683577131,70.7361423461,1,1,1.18280157179,71.9394923188,1,1,0.801972920541,5,6.5,32,bw,99.7788688517,2019_may_16_1618,002,256,20,5,aingere,Experiment_EEG_version,20,
Nonliving_Things,../experiment_stimuli/bw_bc_bl/Nonliving_Things/Vehicles/boat_17.jpg,Vehicles,0,boat,0,15,15,7,74.4743538202,nV_V,1,74.4791085229,75.7570468937,1,1,0.551436809357,76.3290456793,3,0,0.521373995347,5,6.5,32,bw,99.7788688517,2019_may_16_1618,002,256,20,5,aingere,Experiment_EEG_version,20,
Nonliving_Things,../experiment_stimuli/bw_bc_bl/Nonliving_Things/Furniture/table_15.jpg,Furniture,0,table,0,16,16,81,78.5832933725,V_nV,2,78.5881535434,79.8359163804,1,2,0.701758945826,80.5582140285,1,1,0.831873661722,5,6.0,32,bw,99.7788688517,2019_may_16_1618,002,256,20,5,aingere,Experiment_EEG_version,20,
Living_Things,../experiment_stimuli/bw_bc_bl/Living_Things/Insects/ladybird_1.jpg,Insects,0,ladybird,0,17,17,45,83.1231606143,nV_V,2,83.1297537639,84.3958308875,0,1,2.06471115199,86.4811137975,1,1,0.611541986233,5,6.0,32,bw,99.7788688517,2019_may_16_1618,002,256,20,5,aingere,Experiment_EEG_version,20,
Living_Things,../experiment_stimuli/bw_bc_bl/Living_Things/Birds/goose_0.jpg,Birds,0,goose,0,18,18,34,88.8255511916,V_nV,1,88.8305077936,90.1282941208,1,1,1.24292911263,91.3917705447,2,0,0.741835819324,5,6.5,32,bw,99.7788688517,2019_may_16_1618,002,256,20,5,aingere,Experiment_EEG_version,20,
Nonliving_Things,../experiment_stimuli/bw_bc_bl/Nonliving_Things/Vehicles/train_6.jpg,Vehicles,0,train,0,19,19,87,93.8665150689,nV_V,1,93.8713865064,95.1592225139,1,1,0.601534505375,95.7813306946,3,0,0.461226334446,5,6.0,32,bw,99.7788688517,2019_may_16_1618,002,256,20,5,aingere,Experiment_EEG_version,20,
Nonliving_Things,../experiment_stimuli/bw_bc_bl/Nonliving_Things/Kitchen_Uten/frying-pan_4.jpg,Kitchen_Uten,0,frying-pan,0,20,20,31,97.9754620382,nV_V,1,97.9802499509,99.2380924105,1,1,0.751865844708,100.010555088,1,1,0.541471173638,5,6.0,32,bw,99.7788688517,2019_may_16_1618,002,256,20,5,aingere,Experiment_EEG_version,20,
Nonliving_Things,../experiment_stimuli/bw_bc_bl/Nonliving_Things/Buildings/palace_5.jpg,Buildings,0,palace,0,21,21,58,102.284832397,V_nV,2,102.289737935,103.567505174,1,2,0.711617041728,104.299683455,3,0,0.370877019246,5,6.0,32,bw,99.7788688517,2019_may_16_1618,002,256,20,5,aingere,Experiment_EEG_version,20,
Living_Things,../experiment_stimuli/bw_bc_bl/Living_Things/Birds/sparrow_23.jpg,Birds,0,sparrow,0,22,22,79,106.403768693,V_nV,1,106.410110959,107.666412918,1,1,1.11248390214,108.799472259,1,1,0.431173753343,5,6.0,32,bw,99.7788688517,2019_may_16_1618,002,256,20,5,aingere,Experiment_EEG_version,20,
Nonliving_Things,../experiment_stimuli/bw_bc_bl/Nonliving_Things/Kitchen_Uten/coking-pot_19.jpg,Kitchen_Uten,0,coking-pot,0,23,23,18,110.963691279,nV_V,1,110.968675993,112.236346271,1,1,0.68171127094,112.938624702,2,0,0.491291569313,5,6.0,32,bw,99.7788688517,2019_may_16_1618,002,256,20,5,aingere,Experiment_EEG_version,20,
Nonliving_Things,../experiment_stimuli/bw_bc_bl/Nonliving_Things/Furniture/rocking-chair_2.jpg,Furniture,0,rocking-chair,0,24,24,69,115.162807916,nV_V,1,115.167732026,116.425454475,1,1,0.571467078873,117.01751953,3,0,0.441182260518,5,7.0,32,bw,99.7788688517,2019_may_16_1618,002,256,20,5,aingere,Experiment_EEG_version,20,
Living_Things,../experiment_stimuli/bw_bc_bl/Living_Things/Animals/horse_26.jpg,Animals,0,horse,0,25,25,40,119.191594669,V_nV,1,119.196558887,120.434166035,1,1,0.791951635503,121.246669605,1,1,0.391069688951,5,6.0,32,bw,99.7788688517,2019_may_16_1618,002,256,20,5,aingere,Experiment_EEG_version,20,
Nonliving_Things,../experiment_stimuli/bw_bc_bl/Nonliving_Things/Furniture/bed_14.jpg,Furniture,0,bed,0,26,26,5,123.370655619,nV_V,1,123.376971671,124.623878498,0,2,1.62375429075,126.277609754,1,1,0.461219789577,5,7.0,32,bw,99.7788688517,2019_may_16_1618,002,256,20,5,aingere,Experiment_EEG_version,20,
Living_Things,../experiment_stimuli/bw_bc_bl/Living_Things/Animals/zebra_2.jpg,Animals,0,zebra,0,27,27,95,128.4717438,nV_V,2,128.476684741,129.764450294,1,2,0.631618255051,130.416613654,3,0,0.401089936029,5,6.0,32,bw,99.7788688517,2019_may_16_1618,002,256,20,5,aingere,Experiment_EEG_version,20,
Living_Things,../experiment_stimuli/bw_bc_bl/Living_Things/Marine_creatures/whale_16.jpg,Marine_creatures,0,whale,0,28,28,94,132.55061267,nV_V,2,132.555493044,133.81324961,1,2,0.69173071743,134.525540375,2,0,0.44102821406,5,6.0,32,bw,99.7788688517,2019_may_16_1618,002,256,20,5,aingere,Experiment_EEG_version,20,
Living_Things,../experiment_stimuli/bw_bc_bl/Living_Things/Marine_creatures/dolphin_17.jpg,Marine_creatures,0,dolphin,0,29,29,23,136.699626386,V_nV,1,136.704482369,137.952263657,1,1,0.761885678978,138.734675402,1,1,0.381050693104,5,7.5,32,bw,99.7788688517,2019_may_16_1618,002,256,20,5,aingere,Experiment_EEG_version,20,
Living_Things,../experiment_stimuli/bw_bc_bl/Living_Things/Birds/duck_3.jpg,Birds,0,duck,0,30,30,26,140.848666758,V_nV,1,140.853562132,142.131333651,1,1,0.781939076027,142.933819802,1,1,0.501152153593,5,6.0,32,bw,99.7788688517,2019_may_16_1618,002,256,20,5,aingere,Experiment_EEG_version,20,
Nonliving_Things,../experiment_stimuli/bw_bc_bl/Nonliving_Things/Buildings/granary_12.jpg,Buildings,0,granary,0,31,31,35,145.168037451,V_nV,2,145.173186903,146.480787594,1,2,0.531377014006,147.032723524,3,0,0.370879759663,5,6.0,32,bw,99.7788688517,2019_may_16_1618,002,256,20,5,aingere,Experiment_EEG_version,20,
Living_Things,../experiment_stimuli/bw_bc_bl/Living_Things/Animals/armadillo_1.jpg,Animals,0,armadillo,0,32,32,1,149.136664295,V_nV,1,149.143319568,150.429371631,1,1,0.561448324006,151.011367972,1,1,1.82418334496,5,6.0,32,bw,99.7788688517,2019_may_16_1618,002,256,20,5,aingere,Experiment_EEG_version,20,
Living_Things,../experiment_stimuli/bw_bc_bl/Living_Things/Birds/toucan_3.jpg,Birds,0,toucan,0,33,33,85,154.568472071,nV_V,2,154.573293945,155.891253029,1,2,1.11265077943,157.024454769,1,1,0.481262596324,5,6.5,32,bw,99.7788688517,2019_may_16_1618,002,256,20,5,aingere,Experiment_EEG_version,20,
Living_Things,../experiment_stimuli/bw_bc_bl/Living_Things/Birds/seagull_3.jpg,Birds,0,seagull,0,34,34,74,159.238622822,nV_V,2,159.244381646,160.581447527,1,2,0.771908696974,161.373901388,3,0,0.681720195571,5,6.0,32,bw,99.7788688517,2019_may_16_1618,002,256,20,5,aingere,Experiment_EEG_version,20,
Nonliving_Things,../experiment_stimuli/bw_bc_bl/Nonliving_Things/Musical_Inst/trumpet_18.jpg,Musical_Inst,0,trumpet,0,35,35,88,163.788514499,V_nV,2,163.793600633,165.111301495,1,2,0.912210725248,166.044046907,3,0,0.401094812085,5,6.0,32,bw,99.7788688517,2019_may_16_1618,002,256,20,5,aingere,Experiment_EEG_version,20,
Living_Things,../experiment_stimuli/bw_bc_bl/Living_Things/Birds/hen_8.jpg,Birds,0,hen,0,36,36,38,168.178061296,V_nV,1,168.182940042,169.480791627,1,1,0.651647825376,170.153016338,1,1,0.71177287749,5,6.5,32,bw,99.7788688517,2019_may_16_1618,002,256,20,5,aingere,Experiment_EEG_version,20,
Nonliving_Things,../experiment_stimuli/bw_bc_bl/Nonliving_Things/Kitchen_Uten/teapot_14.jpg,Kitchen_Uten,0,teapot,0,37,37,83,172.597667098,nV_V,1,172.602654406,173.92044697,1,1,0.591354639735,174.532370928,3,0,0.381049824879,5,6.0,32,bw,99.7788688517,2019_may_16_1618,002,256,20,5,aingere,Experiment_EEG_version,20,
Living_Things,../experiment_stimuli/bw_bc_bl/Living_Things/Birds/kiwi_23.jpg,Birds,0,kiwi,0,38,38,44,176.646468745,V_nV,1,176.652298522,177.939188077,1,1,0.832036933629,178.791761964,2,0,0.541410903912,5,6.0,32,bw,99.7788688517,2019_may_16_1618,002,256,20,5,aingere,Experiment_EEG_version,20,
Nonliving_Things,../experiment_stimuli/bw_bc_bl/Nonliving_Things/Vehicles/van_0.jpg,Vehicles,0,van,0,39,39,91,181.066078363,nV_V,1,181.070995337,182.348797658,1,1,1.162596207,183.531901695,2,0,0.631599402055,5,6.0,32,bw,99.7788688517,2019_may_16_1618,002,256,20,5,aingere,Experiment_EEG_version,20,
Nonliving_Things,../experiment_stimuli/bw_bc_bl/Nonliving_Things/Furniture/couch_5.jpg,Furniture,0,couch,0,40,40,19,185.89658222,V_nV,2,185.901450876,187.169250385,1,2,0.731815635692,187.921601689,1,1,0.411112326779,5,6.0,32,bw,99.7788688517,2019_may_16_1618,002,256,20,5,aingere,Experiment_EEG_version,20,
Living_Things,../experiment_stimuli/bw_bc_bl/Living_Things/Animals/cat_11.jpg,Animals,0,cat,0,41,41,13,190.065668501,V_nV,1,190.072496336,191.358352811,1,1,0.882158407709,192.261068274,2,0,0.320916159777,5,6.0,32,bw,99.7788688517,2019_may_16_1618,002,256,20,5,aingere,Experiment_EEG_version,20,
Nonliving_Things,../experiment_stimuli/bw_bc_bl/Nonliving_Things/Furniture/lectern_26.jpg,Furniture,0,lectern,0,42,42,47,194.314894875,V_nV,2,194.319683062,195.597567122,1,2,0.942276783404,196.56040228,3,0,0.411112427944,5,7.5,32,bw,99.7788688517,2019_may_16_1618,002,256,20,5,aingere,Experiment_EEG_version,20,
Living_Things,../experiment_stimuli/bw_bc_bl/Living_Things/Animals/elephant_4.jpg,Animals,0,elephant,0,43,43,27,198.704448518,V_nV,1,198.709361406,199.95704424,1,1,1.34314801579,201.320738477,1,1,0.401119116112,5,6.5,32,bw,99.7788688517,2019_may_16_1618,002,256,20,5,aingere,Experiment_EEG_version,20,
Living_Things,../experiment_stimuli/bw_bc_bl/Living_Things/Animals/rhino_3.jpg,Animals,0,rhino,0,44,44,68,203.454746712,V_nV,1,203.461571283,204.71740526,1,1,0.511342255748,205.249273275,1,1,0.381049418938,5,6.0,32,bw,99.7788688517,2019_may_16_1618,002,256,20,5,aingere,Experiment_EEG_version,20,
Nonliving_Things,../experiment_stimuli/bw_bc_bl/Nonliving_Things/Kitchen_Uten/small-saucepan_6.jpg,Kitchen_Uten,0,small-saucepan,0,45,45,77,207.36325045,V_nV,2,207.368149508,208.655962749,1,2,0.741841552313,209.41836186,2,0,0.511335721938,5,8.0,32,bw,99.7788688517,2019_may_16_1618,002,256,20,5,aingere,Experiment_EEG_version,20,
Nonliving_Things,../experiment_stimuli/bw_bc_bl/Nonliving_Things/Vehicles/bus_24.jpg,Vehicles,0,bus,0,46,46,9,211.662589389,nV_V,1,211.667473307,212.945279564,1,1,1.23291127163,214.198753567,3,0,0.461240458069,5,6.5,32,bw,99.7788688517,2019_may_16_1618,002,256,20,5,aingere,Experiment_EEG_version,20,
Living_Things,../experiment_stimuli/bw_bc_bl/Living_Things/Birds/hummingbird_13.jpg,Birds,0,hummingbird,0,47,47,42,216.392874072,nV_V,2,216.39992461,217.645499497,1,2,1.40328031639,219.069330245,1,1,0.501308685169,5,6.5,32,bw,99.7788688517,2019_may_16_1618,002,256,20,5,aingere,Experiment_EEG_version,20,
Living_Things,../experiment_stimuli/bw_bc_bl/Living_Things/Animals/hippopotamus_21.jpg,Animals,0,hippopotamus,0,48,48,39,221.303544259,V_nV,1,221.308475399,222.566192375,1,1,1.23290286178,223.819645401,1,1,0.811980074388,5,6.5,32,bw,99.7788688517,2019_may_16_1618,002,256,20,5,aingere,Experiment_EEG_version,20,
Living_Things,../experiment_stimuli/bw_bc_bl/Living_Things/Birds/rooster_0.jpg,Birds,0,rooster,0,49,49,70,226.364548454,V_nV,1,226.369520849,227.657259888,1,1,0.852075022529,228.529907537,2,0,0.351001548115,5,6.0,32,bw,99.7788688517,2019_may_16_1618,002,256,20,5,aingere,Experiment_EEG_version,20,
Nonliving_Things,../experiment_stimuli/bw_bc_bl/Nonliving_Things/Musical_Inst/guitar_1.jpg,Musical_Inst,0,guitar,0,50,50,36,230.613792832,nV_V,1,230.618737133,231.896479774,1,1,0.872128118877,232.789161933,3,0,0.471268728375,5,7.5,32,bw,99.7788688517,2019_may_16_1618,002,256,20,5,aingere,Experiment_EEG_version,20,
Living_Things,../experiment_stimuli/bw_bc_bl/Living_Things/Animals/turtle_9.jpg,Animals,0,turtle,0,51,51,90,234.993306156,nV_V,2,235.000411828,236.255950483,1,2,1.4333415099,237.709850435,1,1,0.391083910363,5,6.0,32,bw,99.7788688517,2019_may_16_1618,002,256,20,5,aingere,Experiment_EEG_version,20,
Living_Things,../experiment_stimuli/bw_bc_bl/Living_Things/Marine_creatures/narwhal_5.jpg,Marine_creatures,0,narwhal,0,52,52,55,239.833833336,nV_V,2,239.838859489,241.126543495,1,2,0.851913133985,241.999008805,1,1,0.381049031625,5,7.5,32,bw,99.7788688517,2019_may_16_1618,002,256,20,5,aingere,Experiment_EEG_version,20,
Living_Things,../experiment_stimuli/bw_bc_bl/Living_Things/Insects/butterfly_7.jpg,Insects,0,butterfly,0,53,53,10,244.11313841,nV_V,2,244.118045434,245.415867163,1,2,1.27299512574,246.70940907,3,0,0.451199793722,5,6.0,32,bw,99.7788688517,2019_may_16_1618,002,256,20,5,aingere,Experiment_EEG_version,20,
Nonliving_Things,../experiment_stimuli/bw_bc_bl/Nonliving_Things/Kitchen_Uten/fondue_1.jpg,Kitchen_Uten,0,fondue,0,54,54,30,248.893523978,V_nV,2,248.898427224,250.176216657,1,2,1.12268315454,251.319461769,1,1,0.421150915907,5,7.5,32,bw,99.7788688517,2019_may_16_1618,002,256,20,5,aingere,Experiment_EEG_version,20,
Living_Things,../experiment_stimuli/bw_bc_bl/Living_Things/Marine_creatures/killer-whale_13.jpg,Marine_creatures,0,killer-whale,0,55,55,43,253.473481604,nV_V,2,253.478289682,254.766197087,1,2,0.862102014362,255.648864995,2,0,0.361012502573,5,6.0,32,bw,99.7788688517,2019_may_16_1618,002,256,20,5,aingere,Experiment_EEG_version,20,
Living_Things,../experiment_stimuli/bw_bc_bl/Living_Things/Insects/scorpion_1.jpg,Insects,0,scorpion,0,56,56,73,257.742766033,nV_V,2,257.747696515,259.025451039,0,1,0.571484059677,259.617507218,2,0,0.371016066056,5,6.0,32,bw,99.7788688517,2019_may_16_1618,002,256,20,5,aingere,Experiment_EEG_version,20,
Nonliving_Things,../experiment_stimuli/bw_bc_bl/Nonliving_Things/Furniture/chair_9.jpg,Furniture,0,chair,0,57,57,15,261.721413369,V_nV,2,261.727499845,262.994078541,1,2,0.631596180145,263.646218205,3,0,0.340978376218,5,6.0,32,bw,99.7788688517,2019_may_16_1618,002,256,20,5,aingere,Experiment_EEG_version,20,
Nonliving_Things,../experiment_stimuli/bw_bc_bl/Nonliving_Things/Furniture/filling-cabinet_4.jpg,Furniture,0,filling-cabinet,0,58,58,29,265.720103902,V_nV,2,265.727296171,266.962709576,0,1,1.19282010489,268.176147149,1,1,0.391067147255,5,6.0,32,bw,99.7788688517,2019_may_16_1618,002,256,20,5,aingere,Experiment_EEG_version,20,
Nonliving_Things,../experiment_stimuli/bw_bc_bl/Nonliving_Things/Buildings/house_24.jpg,Buildings,0,house,0,59,59,41,270.300065366,nV_V,1,270.304819994,271.552685051,1,1,0.781942519592,272.35518852,2,0,0.37102784426,5,6.0,32,bw,99.7788688517,2019_may_16_1618,002,256,20,5,aingere,Experiment_EEG_version,20,
Nonliving_Things,../experiment_stimuli/bw_bc_bl/Nonliving_Things/Furniture/sofa_20.jpg,Furniture,0,sofa,0,60,60,78,274.459104404,nV_V,1,274.463935079,275.701715495,1,1,1.46324954426,277.185519305,1,1,0.581499506603,5,6.0,32,bw,99.7788688517,2019_may_16_1618,002,256,20,5,aingere,Experiment_EEG_version,20,
Living_Things,../experiment_stimuli/bw_bc_bl/Living_Things/Birds/barn-owl_4.jpg,Birds,0,barn-owl,0,61,61,4,279.500064458,V_nV,1,279.504984595,280.752684192,1,1,0.671684899251,281.444931736,2,0,0.401100857067,5,7.0,32,bw,99.7788688517,2019_may_16_1618,002,256,20,5,aingere,Experiment_EEG_version,20,
Living_Things,../experiment_stimuli/bw_bc_bl/Living_Things/Animals/lioness_6.jpg,Animals,0,lioness,0,62,62,48,283.578956899,V_nV,1,283.583852968,284.821543743,0,2,1.23290595191,286.075011806,1,1,0.49128815555,5,6.5,32,bw,99.7788688517,2019_may_16_1618,002,256,20,5,aingere,Experiment_EEG_version,20,
Living_Things,../experiment_stimuli/bw_bc_bl/Living_Things/Birds/pelican_25.jpg,Birds,0,pelican,0,63,63,60,288.299195114,V_nV,1,288.304054781,289.56183743,1,1,0.671883475385,290.254285877,2,0,0.371026314329,5,7.0,32,bw,99.7788688517,2019_may_16_1618,002,256,20,5,aingere,Experiment_EEG_version,20,
Nonliving_Things,../experiment_stimuli/bw_bc_bl/Nonliving_Things/Furniture/lamp_16.jpg,Furniture,0,lamp,0,64,64,46,292.358010899,nV_V,1,292.36278862,293.610644373,0,2,1.27283663175,294.904022677,1,1,0.441190388286,5,6.5,32,bw,99.7788688517,2019_may_16_1618,002,256,20,5,aingere,Experiment_EEG_version,20,
Living_Things,../experiment_stimuli/bw_bc_bl/Living_Things/Birds/penguin_25.jpg,Birds,0,penguin,0,65,65,61,297.07828235,nV_V,2,297.083263369,298.360965661,1,2,1.18280075979,299.574342558,1,1,0.441177335801,5,6.0,32,bw,99.7788688517,2019_may_16_1618,002,256,20,5,aingere,Experiment_EEG_version,20,
Living_Things,../experiment_stimuli/bw_bc_bl/Living_Things/Birds/magpie_23.jpg,Birds,0,magpie,0,66,66,51,301.748429993,nV_V,2,301.755839598,303.04115431,1,2,2.10480862285,305.166486771,1,1,0.461227383115,5,6.0,32,bw,99.7788688517,2019_may_16_1618,002,256,20,5,aingere,Experiment_EEG_version,20,
Nonliving_Things,../experiment_stimuli/bw_bc_bl/Nonliving_Things/Tools/hammer_23.jpg,Tools,0,hammer,0,67,67,37,307.360632148,V_nV,2,307.365489981,308.683405726,1,2,1.01226437895,309.716256156,1,1,0.822011370445,5,6.0,32,bw,99.7788688517,2019_may_16_1618,002,256,20,5,aingere,Experiment_EEG_version,20,
Living_Things,../experiment_stimuli/bw_bc_bl/Living_Things/Animals/tapir_22.jpg,Animals,0,tapir,0,68,68,82,312.271303715,V_nV,1,312.276113931,313.624147404,1,1,0.741836928646,314.386540459,2,0,0.37102805078,5,6.0,32,bw,99.7788688517,2019_may_16_1618,002,256,20,5,aingere,Experiment_EEG_version,20,
Living_Things,../experiment_stimuli/bw_bc_bl/Living_Things/Marine_creatures/sperm-whale_3.jpg,Marine_creatures,0,sperm-whale,0,69,69,80,316.490483271,nV_V,2,316.495412974,317.833297867,1,2,0.892176967114,318.746031111,2,0,0.371047682129,5,6.0,32,bw,99.7788688517,2019_may_16_1618,002,256,20,5,aingere,Experiment_EEG_version,20,
Nonliving_Things,../experiment_stimuli/bw_bc_bl/Nonliving_Things/Furniture/armchair_4.jpg,Furniture,0,armchair,0,70,70,2,320.849950239,nV_V,1,320.857418485,322.182764647,1,1,0.771916369558,322.975226441,3,0,0.401106755366,5,6.0,32,bw,99.7788688517,2019_may_16_1618,002,256,20,5,aingere,Experiment_EEG_version,20,
Living_Things,../experiment_stimuli/bw_bc_bl/Living_Things/Marine_creatures/lobster_14.jpg,Marine_creatures,0,lobster,0,71,71,49,325.109225209,V_nV,1,325.11416074,326.411948199,0,2,1.28285724414,327.715357171,2,0,0.431155885337,5,7.5,32,bw,99.7788688517,2019_may_16_1618,002,256,20,5,aingere,Experiment_EEG_version,20,
Nonliving_Things,../experiment_stimuli/bw_bc_bl/Nonliving_Things/Vehicles/ship_20.jpg,Vehicles,0,ship,0,72,72,76,329.879583203,nV_V,1,329.885911326,331.172297351,1,1,1.05251518602,332.245394561,2,0,0.54141568963,5,6.0,32,bw,99.7788688517,2019_may_16_1618,002,256,20,5,aingere,Experiment_EEG_version,20,
Nonliving_Things,../experiment_stimuli/bw_bc_bl/Nonliving_Things/Kitchen_Uten/cup_10.jpg,Kitchen_Uten,0,cup,0,73,73,22,334.519672347,nV_V,1,334.524624099,335.802358755,1,1,0.56145405292,336.384374777,3,0,0.371029513306,5,6.5,32,bw,99.7788688517,2019_may_16_1618,002,256,20,5,aingere,Experiment_EEG_version,20,
Nonliving_Things,../experiment_stimuli/bw_bc_bl/Nonliving_Things/Buildings/church_13.jpg,Buildings,0,church,0,74,74,17,338.488298168,V_nV,2,338.493197685,339.750948758,1,2,1.09260611911,340.864095869,2,0,0.471242156927,5,6.5,32,bw,99.7788688517,2019_may_16_1618,002,256,20,5,aingere,Experiment_EEG_version,20,
Living_Things,../experiment_stimuli/bw_bc_bl/Living_Things/Animals/lynx_9.jpg,Animals,0,lynx,0,75,75,50,343.068257907,nV_V,2,343.073289925,344.32088137,1,2,0.962332075112,345.303751771,1,1,0.511344011524,5,6.0,32,bw,99.7788688517,2019_may_16_1618,002,256,20,5,aingere,Experiment_EEG_version,20,
Living_Things,../experiment_stimuli/bw_bc_bl/Living_Things/Birds/partridge_8.jpg,Birds,0,partridge,0,76,76,59,347.547995969,nV_V,2,347.552937714,348.820664374,1,2,0.932265994372,349.773481901,2,0,0.461224954459,5,6.0,32,bw,99.7788688517,2019_may_16_1618,002,256,20,5,aingere,Experiment_EEG_version,20,
Living_Things,../experiment_stimuli/bw_bc_bl/Living_Things/Birds/goldfinch_7.jpg,Birds,0,goldfinch,0,77,77,33,351.967601767,nV_V,2,351.975300492,353.230253274,1,2,1.36320975854,354.614021731,1,1,0.481301035732,5,6.0,32,bw,99.7788688517,2019_may_16_1618,002,256,20,5,aingere,Experiment_EEG_version,20,
Nonliving_Things,../experiment_stimuli/bw_bc_bl/Nonliving_Things/Musical_Inst/piano__18.jpg,Musical_Inst,0,piano,0,78,78,62,356.828165751,V_nV,2,356.834474134,358.120880842,1,2,1.17278053879,359.314257853,1,1,0.59152117162,5,6.5,32,bw,99.7788688517,2019_may_16_1618,002,256,20,5,aingere,Experiment_EEG_version,20,
Nonliving_Things,../experiment_stimuli/bw_bc_bl/Nonliving_Things/Musical_Inst/violin_7.jpg,Musical_Inst,0,violin,0,79,79,92,361.638626741,nV_V,1,361.643513829,362.951384188,1,1,1.28301829437,364.254937294,3,0,0.651639246498,5,6.0,32,bw,99.7788688517,2019_may_16_1618,002,256,20,5,aingere,Experiment_EEG_version,20,
Living_Things,../experiment_stimuli/bw_bc_bl/Living_Things/Marine_creatures/pomfret_14.jpg,Marine_creatures,0,pomfret,0,80,80,65,366.639503779,nV_V,2,366.645806812,367.92218945,0,1,1.0625502714,369.005299795,1,1,0.591517859488,5,6.5,32,bw,99.7788688517,2019_may_16_1618,002,256,20,5,aingere,Experiment_EEG_version,20,
Living_Things,../experiment_stimuli/bw_bc_bl/Living_Things/Insects/dragonfly_3.jpg,Insects,0,dragonfly,0,81,81,24,371.32969421,V_nV,1,371.334579301,372.64245148,1,1,0.781924459734,373.444923935,3,0,0.401094816043,5,6.0,32,bw,99.7788688517,2019_may_16_1618,002,256,20,5,aingere,Experiment_EEG_version,20,
Nonliving_Things,../experiment_stimuli/bw_bc_bl/Nonliving_Things/Musical_Inst/tuba_8.jpg,Musical_Inst,0,tuba,0,82,82,89,375.578931647,V_nV,2,375.583888358,376.871650066,1,2,0.681544528576,377.573750578,3,0,0.551421534969,5,7.5,32,bw,99.7788688517,2019_may_16_1618,002,256,20,5,aingere,Experiment_EEG_version,20,
Living_Things,../experiment_stimuli/bw_bc_bl/Living_Things/Marine_creatures/shark_21.jpg,Marine_creatures,0,shark,0,83,83,75,379.858233482,nV_V,2,379.864534086,381.120888744,0,1,1.19281713502,382.334249848,1,1,0.401106172823,5,6.0,32,bw,99.7788688517,2019_may_16_1618,002,256,20,5,aingere,Experiment_EEG_version,20,
Living_Things,../experiment_stimuli/bw_bc_bl/Living_Things/Birds/owl_17.jpg,Birds,0,owl,0,84,84,57,384.468253305,V_nV,1,384.474521377,385.750943032,0,2,1.29303569591,387.064531983,1,1,0.371023964603,5,6.5,32,bw,99.7788688517,2019_may_16_1618,002,256,20,5,aingere,Experiment_EEG_version,20,
Nonliving_Things,../experiment_stimuli/bw_bc_bl/Nonliving_Things/Kitchen_Uten/pot_12.jpg,Kitchen_Uten,0,pot,0,85,85,66,389.168489626,nV_V,1,389.173325244,390.491250633,1,1,0.651644990779,391.163445581,3,0,0.40109571442,5,6.0,32,bw,99.7788688517,2019_may_16_1618,002,256,20,5,aingere,Experiment_EEG_version,20,
Nonliving_Things,../experiment_stimuli/bw_bc_bl/Nonliving_Things/Buildings/cathedral_13.jpg,Buildings,0,cathedral,0,86,86,14,393.297446117,V_nV,2,393.302208556,394.590173017,1,2,0.892163151177,395.50287802,2,0,0.360999097116,5,6.5,32,bw,99.7788688517,2019_may_16_1618,002,256,20,5,aingere,Experiment_EEG_version,20,
Nonliving_Things,../experiment_stimuli/bw_bc_bl/Nonliving_Things/Furniture/bookcase_16.jpg,Furniture,0,bookcase,0,87,87,8,397.596791239,V_nV,2,397.601665801,398.879486008,1,2,2.26516589778,401.16521045,1,1,0.771897745784,5,7.0,32,bw,99.7788688517,2019_may_16_1618,002,256,20,5,aingere,Experiment_EEG_version,20,
Nonliving_Things,../experiment_stimuli/bw_bc_bl/Nonliving_Things/Tools/axe_21.jpg,Tools,0,axe,0,88,88,3,403.670014401,V_nV,2,403.676476263,404.952691865,1,2,1.15378118295,406.127014133,1,1,0.661502278177,5,6.0,32,bw,99.7788688517,2019_may_16_1618,002,256,20,5,aingere,Experiment_EEG_version,20,
Living_Things,../experiment_stimuli/bw_bc_bl/Living_Things/Birds/pigeon_24.jpg,Birds,0,pigeon,0,89,89,63,408.530564858,V_nV,1,408.535318338,409.853343718,1,1,1.32310216001,411.19699155,1,1,1.57364719629,5,6.5,32,bw,99.7788688517,2019_may_16_1618,002,256,20,5,aingere,Experiment_EEG_version,20,
Nonliving_Things,../experiment_stimuli/bw_bc_bl/Nonliving_Things/Furniture/bedside-table_20.jpg,Furniture,0,bedside-table,0,90,90,6,414.513573559,nV_V,1,414.518425005,415.856395196,1,1,0.661666569067,416.538616794,3,0,0.451207477832,5,6.5,32,bw,99.7788688517,2019_may_16_1618,002,256,20,5,aingere,Experiment_EEG_version,20,
Living_Things,../experiment_stimuli/bw_bc_bl/Living_Things/Birds/raven_26.jpg,Birds,0,raven,0,91,91,67,418.72272271,V_nV,1,418.727501442,420.025455451,1,1,0.711619293317,420.757617537,2,0,0.681703504059,5,7.5,32,bw,99.7788688517,2019_may_16_1618,002,256,20,5,aingere,Experiment_EEG_version,20,
Nonliving_Things,../experiment_stimuli/bw_bc_bl/Nonliving_Things/Vehicles/tractor_15.jpg,Vehicles,0,tractor,0,92,92,86,423.182424675,nV_V,1,423.187198494,424.475127628,1,1,0.731836658204,425.227533348,3,0,0.38105326856,5,6.0,32,bw,99.7788688517,2019_may_16_1618,002,256,20,5,aingere,Experiment_EEG_version,20,
Nonliving_Things,../experiment_stimuli/bw_bc_bl/Nonliving_Things/Furniture/Chest-of-drawers_4.jpg,Furniture,0,Chest-of-drawers,0,93,93,0,427.341465713,nV_V,1,427.346203092,428.614131584,1,1,0.611556102289,429.256294305,3,0,0.381051189383,5,7.0,32,bw,99.7788688517,2019_may_16_1618,002,256,20,5,aingere,Experiment_EEG_version,20,
Nonliving_Things,../experiment_stimuli/bw_bc_bl/Nonliving_Things/Furniture/wardrobe_17.jpg,Furniture,0,wardrobe,0,94,94,93,431.380242033,V_nV,2,431.384960589,432.622843361,1,2,0.881980470032,433.525405123,2,0,0.44121164747,5,6.0,32,bw,99.7788688517,2019_may_16_1618,002,256,20,5,aingere,Experiment_EEG_version,20,
Living_Things,../experiment_stimuli/bw_bc_bl/Living_Things/Animals/cheetah_18.jpg,Animals,0,cheetah,0,95,95,16,435.699630432,V_nV,1,435.706167609,436.942231651,1,1,1.01242684247,437.975211993,1,1,0.420981380506,5,6.0,32,bw,99.7788688517,2019_may_16_1618,002,256,20,5,aingere,Experiment_EEG_version,20,
