category,probe_path,subcategory,fixation_duration,label,trials.thisRepN,trials.thisTrialN,trials.thisN,trials.thisIndex,image_onset_time,response_window,correctAns,probe_onset,discrim_resptime,response.corr,response.keys,response.rt,visible_resptime,visible.keys,visible.corr,visible.rt,probeFrames,jitter2,n_square,experiment_color,frameRate,date,session,image_size,premask_dur,probeFrames,participant,expName,postmask_dur,
Nonliving_Things,../experiment_stimuli/bw_bc_bl/Nonliving_Things/Buildings/mill_2.jpg,Buildings,0,mill,0,0,0,53,3.72413483751,nV_V,1,3.74526853138,5.00682307663,0,2,1.5636241741,6.60128924134,1,1,0.30072229472,5,8.0,32,bw,99.7805122395,2019_may_29_1053,017,256,20,5,aingere,Experiment_EEG_version,20,
Nonliving_Things,../experiment_stimuli/bw_bc_bl/Nonliving_Things/Kitchen_Uten/frying-pan_13.jpg,Kitchen_Uten,0,frying-pan,0,1,1,31,8.63480007695,nV_V,1,8.64001523564,9.92751804087,1,1,0.762081472902,10.7101473699,3,0,0.280812598765,5,7.5,32,bw,99.7805122395,2019_may_29_1053,017,256,20,5,aingere,Experiment_EEG_version,20,
Living_Things,../experiment_stimuli/bw_bc_bl/Living_Things/Animals/tiger_9.jpg,Animals,0,tiger,0,2,2,84,12.7236982018,nV_V,2,12.7285717526,13.9863591262,1,2,0.561449184781,14.5683449493,1,1,0.300904619275,5,6.5,32,bw,99.7805122395,2019_may_29_1053,017,256,20,5,aingere,Experiment_EEG_version,20,
Nonliving_Things,../experiment_stimuli/bw_bc_bl/Nonliving_Things/Furniture/bookcase_13.jpg,Furniture,0,bookcase,0,3,3,8,16.6021267585,nV_V,1,16.6070608234,17.8848153134,1,1,0.882161046378,18.7875263477,3,0,0.260905071395,5,7.0,32,bw,99.7805122395,2019_may_29_1053,017,256,20,5,aingere,Experiment_EEG_version,20,
Living_Things,../experiment_stimuli/bw_bc_bl/Living_Things/Marine_creatures/dolphin_8.jpg,Marine_creatures,0,dolphin,0,4,4,23,20.7812504487,V_nV,1,20.7860968756,22.0338301037,1,1,1.06253635045,23.1169217576,1,1,0.250778359361,5,6.5,32,bw,99.7805122395,2019_may_29_1053,017,256,20,5,aingere,Experiment_EEG_version,20,
Living_Things,../experiment_stimuli/bw_bc_bl/Living_Things/Birds/barn-owl_0.jpg,Birds,0,barn-owl,0,5,5,4,25.1005957844,nV_V,2,25.1053958512,26.3832876887,1,2,1.10262096068,27.5064634753,2,0,0.591533460654,5,6.0,32,bw,99.7805122395,2019_may_29_1053,017,256,20,5,aingere,Experiment_EEG_version,20,
Living_Things,../experiment_stimuli/bw_bc_bl/Living_Things/Marine_creatures/narwhal_2.jpg,Marine_creatures,0,narwhal,0,6,6,55,29.830894073,nV_V,2,29.8357203351,31.1035431852,1,2,0.431169174379,31.555265201,2,0,0.371070854599,5,6.5,32,bw,99.7805122395,2019_may_29_1053,017,256,20,5,aingere,Experiment_EEG_version,20,
Living_Things,../experiment_stimuli/bw_bc_bl/Living_Things/Animals/horse_12.jpg,Animals,0,horse,0,7,7,40,33.659212148,V_nV,1,33.664595515,34.9218479036,1,1,1.56364089204,36.506045599,2,0,0.441180628957,5,6.0,32,bw,99.7805122395,2019_may_29_1053,017,256,20,5,aingere,Experiment_EEG_version,20,
Nonliving_Things,../experiment_stimuli/bw_bc_bl/Nonliving_Things/Kitchen_Uten/coking-pot_11.jpg,Kitchen_Uten,0,coking-pot,0,8,8,18,38.6801107489,V_nV,2,38.6860431039,39.9327427074,1,2,1.16276229476,41.1160572309,2,0,1.01241355343,5,6.5,32,bw,99.7805122395,2019_may_29_1053,017,256,20,5,aingere,Experiment_EEG_version,20,
Living_Things,../experiment_stimuli/bw_bc_bl/Living_Things/Birds/owl_24.jpg,Birds,0,owl,0,9,9,57,43.8613966387,nV_V,2,43.866235784,45.1039809482,1,2,0.852085699094,45.9766013573,1,1,0.340962117072,5,6.0,32,bw,99.7805122395,2019_may_29_1053,017,256,20,5,aingere,Experiment_EEG_version,20,
Living_Things,../experiment_stimuli/bw_bc_bl/Living_Things/Marine_creatures/sperm-whale_22.jpg,Marine_creatures,0,sperm-whale,0,10,10,80,48.0504845695,V_nV,1,48.0552781438,49.3031104945,1,1,0.78195338021,50.1056258099,2,0,0.381067234324,5,7.0,32,bw,99.7805122395,2019_may_29_1053,017,256,20,5,aingere,Experiment_EEG_version,20,
Nonliving_Things,../experiment_stimuli/bw_bc_bl/Nonliving_Things/Furniture/table_4.jpg,Furniture,0,table,0,11,11,81,52.2195698619,V_nV,2,52.2244311837,53.4621506941,1,2,0.631657039979,54.114367624,2,0,0.270658916794,5,6.0,32,bw,99.7805122395,2019_may_29_1053,017,256,20,5,aingere,Experiment_EEG_version,20,
Living_Things,../experiment_stimuli/bw_bc_bl/Living_Things/Marine_creatures/killer-whale_15.jpg,Marine_creatures,0,killer-whale,0,12,12,43,56.11802141,nV_V,2,56.1228293036,57.3506032499,0,1,0.982359784655,58.3535190935,1,1,0.28083394398,5,6.5,32,bw,99.7805122395,2019_may_29_1053,017,256,20,5,aingere,Experiment_EEG_version,20,
Living_Things,../experiment_stimuli/bw_bc_bl/Living_Things/Animals/cat_22.jpg,Animals,0,cat,0,13,13,13,60.3672602312,nV_V,2,60.372557862,61.6299021933,0,1,1.17277328274,62.8232355013,1,1,0.320919509046,5,6.0,32,bw,99.7805122395,2019_may_29_1053,017,256,20,5,aingere,Experiment_EEG_version,20,
Nonliving_Things,../experiment_stimuli/bw_bc_bl/Nonliving_Things/Tools/axe_2.jpg,Tools,0,axe,0,14,14,3,64.8770598921,V_nV,2,64.8819082438,66.1597528828,1,2,0.691724319011,66.872045351,2,0,0.441182790324,5,7.0,32,bw,99.7805122395,2019_may_29_1053,017,256,20,5,aingere,Experiment_EEG_version,20,
Nonliving_Things,../experiment_stimuli/bw_bc_bl/Nonliving_Things/Furniture/sofa_7.jpg,Furniture,0,sofa,0,15,15,78,69.0461269477,nV_V,1,69.0508626397,70.3187937813,0,2,1.31310931104,71.6524598314,2,0,0.371031313902,5,6.0,32,bw,99.7805122395,2019_may_29_1053,017,256,20,5,aingere,Experiment_EEG_version,20,
Nonliving_Things,../experiment_stimuli/bw_bc_bl/Nonliving_Things/Tools/hammer_17.jpg,Tools,0,hammer,0,16,16,37,73.7563627907,V_nV,2,73.7612304918,75.0190102339,1,2,1.06254548579,76.1021104816,2,0,0.65164350206,5,8.0,32,bw,99.7805122395,2019_may_29_1053,017,256,20,5,aingere,Experiment_EEG_version,20,
Nonliving_Things,../experiment_stimuli/bw_bc_bl/Nonliving_Things/Vehicles/bus_11.jpg,Vehicles,0,bus,0,17,17,9,78.4866472827,nV_V,1,78.4915008224,79.7392778806,1,1,0.621581857558,80.3813966059,3,0,0.421124311164,5,6.0,32,bw,99.7805122395,2019_may_29_1053,017,256,20,5,aingere,Experiment_EEG_version,20,
Living_Things,../experiment_stimuli/bw_bc_bl/Living_Things/Insects/butterfly_23.jpg,Insects,0,butterfly,0,18,18,10,82.5354453805,nV_V,2,82.5413442776,83.7680332393,0,1,1.54357778816,85.332166861,1,1,0.340962327318,5,7.5,32,bw,99.7805122395,2019_may_29_1053,017,256,20,5,aingere,Experiment_EEG_version,20,
Nonliving_Things,../experiment_stimuli/bw_bc_bl/Nonliving_Things/Furniture/rocking-chair_9.jpg,Furniture,0,rocking-chair,0,19,19,69,87.4060371676,V_nV,2,87.4124163319,88.6586640815,1,2,0.691776761785,89.3710098795,2,0,0.350992999505,5,6.5,32,bw,99.7805122395,2019_may_29_1053,017,256,20,5,aingere,Experiment_EEG_version,20,
Nonliving_Things,../experiment_stimuli/bw_bc_bl/Nonliving_Things/Kitchen_Uten/teapot_26.jpg,Kitchen_Uten,0,teapot,0,20,20,83,91.4548415546,V_nV,2,91.4597115079,92.6974477887,1,2,0.791947774589,93.5100002007,2,0,1.35316486866,5,8.0,32,bw,99.7805122395,2019_may_29_1053,017,256,20,5,aingere,Experiment_EEG_version,20,
Living_Things,../experiment_stimuli/bw_bc_bl/Living_Things/Birds/hen_13.jpg,Birds,0,hen,0,21,21,38,96.5960236769,nV_V,2,96.6008388603,97.8285982842,0,1,1.00242061727,98.8515711185,1,1,0.290856706677,5,6.5,32,bw,99.7805122395,2019_may_29_1053,017,256,20,5,aingere,Experiment_EEG_version,20,
Living_Things,../experiment_stimuli/bw_bc_bl/Living_Things/Marine_creatures/manatee_17.jpg,Marine_creatures,0,manatee,0,22,22,52,100.875318293,V_nV,1,100.880105785,102.127946068,1,1,1.42332109693,103.571859103,2,0,1.82420047978,5,7.5,32,bw,99.7805122395,2019_may_29_1053,017,256,20,5,aingere,Experiment_EEG_version,20,
Living_Things,../experiment_stimuli/bw_bc_bl/Living_Things/Animals/lynx_10.jpg,Animals,0,lynx,0,23,23,50,107.128929856,nV_V,2,107.134071144,108.37151776,0,1,0.581493202597,108.973580885,1,1,0.310897483258,5,6.0,32,bw,99.7805122395,2019_may_29_1053,017,256,20,5,aingere,Experiment_EEG_version,20,
Living_Things,../experiment_stimuli/bw_bc_bl/Living_Things/Birds/sparrow_13.jpg,Birds,0,sparrow,0,24,24,79,111.017375066,V_nV,1,111.02230241,112.280014942,1,1,0.972331958357,113.272915534,2,0,1.20284845377,5,7.5,32,bw,99.7805122395,2019_may_29_1053,017,256,20,5,aingere,Experiment_EEG_version,20,
Nonliving_Things,../experiment_stimuli/bw_bc_bl/Nonliving_Things/Kitchen_Uten/cup_13.jpg,Kitchen_Uten,0,cup,0,25,25,22,116.208649874,nV_V,1,116.214366348,117.461296565,1,1,1.04250340816,118.524361288,1,1,0.320935753174,5,6.0,32,bw,99.7805122395,2019_may_29_1053,017,256,20,5,aingere,Experiment_EEG_version,20,
Nonliving_Things,../experiment_stimuli/bw_bc_bl/Nonliving_Things/Vehicles/car_2.jpg,Vehicles,0,car,0,26,26,11,120.578149311,V_nV,2,120.582952742,121.850825385,1,2,2.14488675562,124.026321627,3,0,0.43118552817,5,6.0,32,bw,99.7805122395,2019_may_29_1053,017,256,20,5,aingere,Experiment_EEG_version,20,
Living_Things,../experiment_stimuli/bw_bc_bl/Living_Things/Birds/rooster_13.jpg,Birds,0,rooster,0,27,27,70,126.190361785,nV_V,2,126.196273445,127.442977041,0,1,0.571466789115,128.035012709,1,1,0.300716369879,5,6.0,32,bw,99.7805122395,2019_may_29_1053,017,256,20,5,aingere,Experiment_EEG_version,20,
Living_Things,../experiment_stimuli/bw_bc_bl/Living_Things/Animals/armadillo_9.jpg,Animals,0,armadillo,0,28,28,1,130.06878389,nV_V,2,130.073724966,131.341454709,1,2,1.16275446769,132.524792435,2,0,0.310892893234,5,6.0,32,bw,99.7805122395,2019_may_29_1053,017,256,20,5,aingere,Experiment_EEG_version,20,
Living_Things,../experiment_stimuli/bw_bc_bl/Living_Things/Animals/zebra_16.jpg,Animals,0,zebra,0,29,29,95,134.568569563,V_nV,1,134.574320214,135.831216273,1,1,0.651668554405,136.503434187,2,0,0.310925088357,5,6.5,32,bw,99.7805122395,2019_may_29_1053,017,256,20,5,aingere,Experiment_EEG_version,20,
Living_Things,../experiment_stimuli/bw_bc_bl/Living_Things/Marine_creatures/crab_25.jpg,Marine_creatures,0,crab,0,30,30,21,138.547221275,nV_V,2,138.552111021,139.799842407,0,1,1.43335566414,141.253767257,1,1,0.280830075732,5,6.0,32,bw,99.7805122395,2019_may_29_1053,017,256,20,5,aingere,Experiment_EEG_version,20,
Nonliving_Things,../experiment_stimuli/bw_bc_bl/Nonliving_Things/Buildings/factory_16.jpg,Buildings,0,factory,0,31,31,28,143.267478324,nV_V,1,143.27235031,144.550169461,1,1,0.581334896386,145.152058089,3,0,0.33094285056,5,6.0,32,bw,99.7805122395,2019_may_29_1053,017,256,20,5,aingere,Experiment_EEG_version,20,
Living_Things,../experiment_stimuli/bw_bc_bl/Living_Things/Birds/kiwi_2.jpg,Birds,0,kiwi,0,32,32,44,147.216121818,V_nV,1,147.221848304,148.468687282,1,1,0.942274734378,149.431524312,2,0,0.340965162031,5,6.0,32,bw,99.7805122395,2019_may_29_1053,017,256,20,5,aingere,Experiment_EEG_version,20,
Living_Things,../experiment_stimuli/bw_bc_bl/Living_Things/Animals/rhino_21.jpg,Animals,0,rhino,0,33,33,68,151.505388073,V_nV,1,151.511233941,152.7479945,1,1,1.00240301643,153.770963244,1,1,0.371024205117,5,7.0,32,bw,99.7805122395,2019_may_29_1053,017,256,20,5,aingere,Experiment_EEG_version,20,
Nonliving_Things,../experiment_stimuli/bw_bc_bl/Nonliving_Things/Musical_Inst/violin_17.jpg,Musical_Inst,0,violin,0,34,34,92,155.874888962,V_nV,2,155.879949352,157.127511586,1,2,0.511332545197,157.65939451,3,0,0.361002033111,5,6.0,32,bw,99.7805122395,2019_may_29_1053,017,256,20,5,aingere,Experiment_EEG_version,20,
Living_Things,../experiment_stimuli/bw_bc_bl/Living_Things/Birds/raven_21.jpg,Birds,0,raven,0,35,35,67,159.753319078,V_nV,1,159.759230284,160.985900806,1,1,0.902184252394,161.908653917,1,1,0.280861489009,5,6.0,32,bw,99.7805122395,2019_may_29_1053,017,256,20,5,aingere,Experiment_EEG_version,20,
Nonliving_Things,../experiment_stimuli/bw_bc_bl/Nonliving_Things/Kitchen_Uten/pot_2.jpg,Kitchen_Uten,0,pot,0,36,36,66,163.922386905,V_nV,2,163.927257644,165.185030969,1,2,0.661662313389,165.867255785,3,0,0.310901528457,5,6.0,32,bw,99.7805122395,2019_may_29_1053,017,256,20,5,aingere,Experiment_EEG_version,20,
Living_Things,../experiment_stimuli/bw_bc_bl/Living_Things/Birds/pelican_24.jpg,Birds,0,pelican,0,37,37,60,167.91105683,nV_V,2,167.915966354,169.153654827,0,1,0.922230803873,170.096446017,1,1,0.260805343743,5,6.5,32,bw,99.7805122395,2019_may_29_1053,017,256,20,5,aingere,Experiment_EEG_version,20,
Living_Things,../experiment_stimuli/bw_bc_bl/Living_Things/Birds/toucan_11.jpg,Birds,0,toucan,0,38,38,85,172.090142062,V_nV,1,172.096041038,173.362808888,1,1,0.711933149723,174.095292736,1,1,0.90218562074,5,8.0,32,bw,99.7805122395,2019_may_29_1053,017,256,20,5,aingere,Experiment_EEG_version,20,
Nonliving_Things,../experiment_stimuli/bw_bc_bl/Nonliving_Things/Kitchen_Uten/fondue_25.jpg,Kitchen_Uten,0,fondue,0,39,39,30,176.730227504,nV_V,1,176.735064653,178.022946317,1,1,1.29303840641,179.336555072,2,0,0.461254379246,5,6.0,32,bw,99.7805122395,2019_may_29_1053,017,256,20,5,aingere,Experiment_EEG_version,20,
Nonliving_Things,../experiment_stimuli/bw_bc_bl/Nonliving_Things/Furniture/bedside-table_6.jpg,Furniture,0,bedside-table,0,40,40,6,181.530672923,nV_V,1,181.535515046,182.813352918,1,1,1.78410350904,184.618040091,2,0,0.741835604887,5,6.0,32,bw,99.7805122395,2019_may_29_1053,017,256,20,5,aingere,Experiment_EEG_version,20,
Living_Things,../experiment_stimuli/bw_bc_bl/Living_Things/Birds/goldfinch_15.jpg,Birds,0,goldfinch,0,41,41,33,187.092761431,V_nV,1,187.097588824,188.365432009,0,2,1.0124295305,189.398419008,2,0,0.340969056822,5,6.5,32,bw,99.7805122395,2019_may_29_1053,017,256,20,5,aingere,Experiment_EEG_version,20,
Nonliving_Things,../experiment_stimuli/bw_bc_bl/Nonliving_Things/Buildings/cathedral_1.jpg,Buildings,0,cathedral,0,42,42,14,191.472276014,V_nV,2,191.477288834,192.734923548,1,2,0.761894746684,193.517383146,1,1,0.371029020753,5,6.0,32,bw,99.7805122395,2019_may_29_1053,017,256,20,5,aingere,Experiment_EEG_version,20,
Nonliving_Things,../experiment_stimuli/bw_bc_bl/Nonliving_Things/Kitchen_Uten/small-saucepan_9.jpg,Kitchen_Uten,0,small-saucepan,0,43,43,77,195.621297504,nV_V,1,195.628184029,196.914008118,1,1,0.932279727655,197.866854833,3,0,0.340986763127,5,7.5,32,bw,99.7805122395,2019_may_29_1053,017,256,20,5,aingere,Experiment_EEG_version,20,
Living_Things,../experiment_stimuli/bw_bc_bl/Living_Things/Birds/duck_0.jpg,Birds,0,duck,0,44,44,26,199.940690369,V_nV,1,199.945577999,201.194019183,1,1,0.561459117103,201.775331038,3,0,0.290854454506,5,7.0,32,bw,99.7805122395,2019_may_29_1053,017,256,20,5,aingere,Experiment_EEG_version,20,
Nonliving_Things,../experiment_stimuli/bw_bc_bl/Nonliving_Things/Furniture/wardrobe_24.jpg,Furniture,0,wardrobe,0,45,45,93,203.799074288,V_nV,2,203.80490272,205.031654579,1,2,0.721795956139,205.774011834,1,1,0.290880236076,5,6.0,32,bw,99.7805122395,2019_may_29_1053,017,256,20,5,aingere,Experiment_EEG_version,20,
Nonliving_Things,../experiment_stimuli/bw_bc_bl/Nonliving_Things/Vehicles/plane_11.jpg,Vehicles,0,plane,0,46,46,64,207.797766024,V_nV,2,207.803277517,209.040371307,1,2,1.25295095821,210.313881493,1,1,0.371016615303,5,6.5,32,bw,99.7805122395,2019_may_29_1053,017,256,20,5,aingere,Experiment_EEG_version,20,
Living_Things,../experiment_stimuli/bw_bc_bl/Living_Things/Animals/hippopotamus_1.jpg,Animals,0,hippopotamus,0,47,47,39,212.417813129,V_nV,1,212.422659161,213.670434618,1,1,0.721799474908,214.412813591,2,0,0.541399723617,5,6.5,32,bw,99.7805122395,2019_may_29_1053,017,256,20,5,aingere,Experiment_EEG_version,20,
Nonliving_Things,../experiment_stimuli/bw_bc_bl/Nonliving_Things/Buildings/granary_5.jpg,Buildings,0,granary,0,48,48,35,216.687095189,nV_V,1,216.69419464,217.92970442,1,1,0.711777234916,218.66203889,2,0,0.371046388987,5,6.0,32,bw,99.7805122395,2019_may_29_1053,017,256,20,5,aingere,Experiment_EEG_version,20,
Nonliving_Things,../experiment_stimuli/bw_bc_bl/Nonliving_Things/Vehicles/motorbike_21.jpg,Vehicles,0,motorbike,0,49,49,54,220.765964037,nV_V,1,220.771888501,221.998551072,1,1,0.77174427826,222.790879462,1,1,0.330944756744,5,7.5,32,bw,99.7805122395,2019_may_29_1053,017,256,20,5,aingere,Experiment_EEG_version,20,
Living_Things,../experiment_stimuli/bw_bc_bl/Living_Things/Marine_creatures/pomfret_8.jpg,Marine_creatures,0,pomfret,0,50,50,65,224.854846808,V_nV,1,224.859707897,226.097452012,0,2,0.671684891684,226.789714125,1,1,0.300875829998,5,6.5,32,bw,99.7805122395,2019_may_29_1053,017,256,20,5,aingere,Experiment_EEG_version,20,
Nonliving_Things,../experiment_stimuli/bw_bc_bl/Nonliving_Things/Buildings/castle_3.jpg,Buildings,0,castle,0,51,51,12,228.823490742,nV_V,1,228.828333665,230.07610566,1,1,1.26296856278,231.359632834,2,0,0.781922328053,5,6.0,32,bw,99.7805122395,2019_may_29_1053,017,256,20,5,aingere,Experiment_EEG_version,20,
Living_Things,../experiment_stimuli/bw_bc_bl/Living_Things/Birds/partridge_18.jpg,Birds,0,partridge,0,52,52,59,233.874459859,V_nV,1,233.879314042,235.117072748,1,1,1.16276609199,236.300376782,2,0,0.962320165709,5,6.0,32,bw,99.7805122395,2019_may_29_1053,017,256,20,5,aingere,Experiment_EEG_version,20,
Nonliving_Things,../experiment_stimuli/bw_bc_bl/Nonliving_Things/Furniture/filling-cabinet_24.jpg,Furniture,0,filling-cabinet,0,53,53,29,238.995592735,V_nV,2,239.001501858,240.228173327,1,2,0.801972717512,241.050702592,1,1,0.290870184312,5,7.0,32,bw,99.7805122395,2019_may_29_1053,017,256,20,5,aingere,Experiment_EEG_version,20,
Nonliving_Things,../experiment_stimuli/bw_bc_bl/Nonliving_Things/Furniture/bed_25.jpg,Furniture,0,bed,0,54,54,5,243.074467372,nV_V,1,243.080441441,244.33712559,1,1,0.581489514327,244.939155299,3,0,0.310896344483,5,8.0,32,bw,99.7805122395,2019_may_29_1053,017,256,20,5,aingere,Experiment_EEG_version,20,
Living_Things,../experiment_stimuli/bw_bc_bl/Living_Things/Birds/penguin_18.jpg,Birds,0,penguin,0,55,55,61,246.982955351,V_nV,1,246.987817744,248.225559375,1,1,1.38323645317,249.629358726,1,1,0.401097120484,5,6.0,32,bw,99.7805122395,2019_may_29_1053,017,256,20,5,aingere,Experiment_EEG_version,20,
Nonliving_Things,../experiment_stimuli/bw_bc_bl/Nonliving_Things/Musical_Inst/drum_10.jpg,Musical_Inst,0,drum,0,56,56,25,251.763358705,V_nV,2,251.76817317,253.036015636,1,2,1.79415612062,254.850739522,3,0,0.381071275333,5,7.0,32,bw,99.7805122395,2019_may_29_1053,017,256,20,5,aingere,Experiment_EEG_version,20,
Living_Things,../experiment_stimuli/bw_bc_bl/Living_Things/Marine_creatures/lobster_20.jpg,Marine_creatures,0,lobster,0,57,57,49,256.964655225,nV_V,2,256.969575464,258.207272245,1,2,1.27299392666,259.50080675,1,1,0.310888840817,5,7.5,32,bw,99.7805122395,2019_may_29_1053,017,256,20,5,aingere,Experiment_EEG_version,20,
Nonliving_Things,../experiment_stimuli/bw_bc_bl/Nonliving_Things/Furniture/lamp_18.jpg,Furniture,0,lamp,0,58,58,46,261.544614367,nV_V,1,261.549459955,262.817302035,1,1,0.872150118463,263.710020494,3,0,0.340810107999,5,7.5,32,bw,99.7805122395,2019_may_29_1053,017,256,20,5,aingere,Experiment_EEG_version,20,
Living_Things,../experiment_stimuli/bw_bc_bl/Living_Things/Animals/elephant_12.jpg,Animals,0,elephant,0,59,59,27,265.783832929,nV_V,2,265.788697781,267.036458027,1,2,1.23275171337,268.289803589,1,1,0.57147682691,5,8.0,32,bw,99.7805122395,2019_may_29_1053,017,256,20,5,aingere,Experiment_EEG_version,20,
Nonliving_Things,../experiment_stimuli/bw_bc_bl/Nonliving_Things/Musical_Inst/tuba_3.jpg,Musical_Inst,0,tuba,0,60,60,89,270.594289058,V_nV,2,270.600476124,271.876982136,1,2,0.681718405802,272.579255868,2,0,0.361007593106,5,6.0,32,bw,99.7805122395,2019_may_29_1053,017,256,20,5,aingere,Experiment_EEG_version,20,
Living_Things,../experiment_stimuli/bw_bc_bl/Living_Things/Insects/scorpion_23.jpg,Insects,0,scorpion,0,61,61,73,274.673151884,nV_V,2,274.678050227,275.935800771,1,2,1.01241805311,276.968777462,1,1,0.280859165592,5,6.5,32,bw,99.7805122395,2019_may_29_1053,017,256,20,5,aingere,Experiment_EEG_version,20,
Living_Things,../experiment_stimuli/bw_bc_bl/Living_Things/Birds/pigeon_8.jpg,Birds,0,pigeon,0,62,62,63,278.982530956,nV_V,2,278.987389582,280.275237725,1,2,0.922249626601,281.218047241,3,0,0.511366090039,5,7.5,32,bw,99.7805122395,2019_may_29_1053,017,256,20,5,aingere,Experiment_EEG_version,20,
Nonliving_Things,../experiment_stimuli/bw_bc_bl/Nonliving_Things/Buildings/palace_12.jpg,Buildings,0,palace,0,63,63,58,283.462282758,V_nV,2,283.467214988,284.714903289,1,2,0.98239017115,285.717828624,1,1,0.230721522821,5,6.0,32,bw,99.7805122395,2019_may_29_1053,017,256,20,5,aingere,Experiment_EEG_version,20,
Nonliving_Things,../experiment_stimuli/bw_bc_bl/Nonliving_Things/Vehicles/van_21.jpg,Vehicles,0,van,0,64,64,91,287.681438442,nV_V,1,287.686392947,288.944085679,1,1,0.822013983503,289.786642894,3,0,0.240748225246,5,6.5,32,bw,99.7805122395,2019_may_29_1053,017,256,20,5,aingere,Experiment_EEG_version,20,
Living_Things,../experiment_stimuli/bw_bc_bl/Living_Things/Marine_creatures/whale_14.jpg,Marine_creatures,0,whale,0,65,65,94,291.76030438,V_nV,1,291.765219904,292.992887521,1,1,0.621592793148,293.645064132,1,1,0.260792156216,5,7.5,32,bw,99.7805122395,2019_may_29_1053,017,256,20,5,aingere,Experiment_EEG_version,20,
Nonliving_Things,../experiment_stimuli/bw_bc_bl/Nonliving_Things/Musical_Inst/guitar_3.jpg,Musical_Inst,0,guitar,0,66,66,36,295.638746286,nV_V,1,295.64376738,296.881341426,1,1,0.791968154022,297.693855162,1,1,0.320919088321,5,6.0,32,bw,99.7805122395,2019_may_29_1053,017,256,20,5,aingere,Experiment_EEG_version,20,
Nonliving_Things,../experiment_stimuli/bw_bc_bl/Nonliving_Things/Furniture/Chest-of-drawers_9.jpg,Furniture,0,Chest-of-drawers,0,67,67,0,299.747671106,V_nV,2,299.752533044,301.030363356,1,2,0.641624021577,301.692539962,2,0,0.541405438213,5,6.5,32,bw,99.7805122395,2019_may_29_1053,017,256,20,5,aingere,Experiment_EEG_version,20,
Nonliving_Things,../experiment_stimuli/bw_bc_bl/Nonliving_Things/Furniture/lectern_4.jpg,Furniture,0,lectern,0,68,68,47,303.966835481,V_nV,2,303.971934803,305.239512447,1,2,0.631616067141,305.891693535,3,0,0.280833688332,5,6.0,32,bw,99.7805122395,2019_may_29_1053,017,256,20,5,aingere,Experiment_EEG_version,20,
Living_Things,../experiment_stimuli/bw_bc_bl/Living_Things/Birds/magpie_20.jpg,Birds,0,magpie,0,69,69,51,307.905402305,nV_V,2,307.91307333,309.137984821,1,2,0.812022532336,309.970561469,1,1,0.391088910168,5,6.0,32,bw,99.7805122395,2019_may_29_1053,017,256,20,5,aingere,Experiment_EEG_version,20,
Nonliving_Things,../experiment_stimuli/bw_bc_bl/Nonliving_Things/Vehicles/train_21.jpg,Vehicles,0,train,0,70,70,87,312.094506386,V_nV,2,312.099448898,313.347156006,1,2,0.962330338312,314.33002829,1,1,0.340960259782,5,6.0,32,bw,99.7805122395,2019_may_29_1053,017,256,20,5,aingere,Experiment_EEG_version,20,
Living_Things,../experiment_stimuli/bw_bc_bl/Living_Things/Birds/seagull_12.jpg,Birds,0,seagull,0,71,71,74,316.41394566,V_nV,1,316.418899036,317.666525665,1,1,0.501320850337,318.188400867,1,1,0.280830928823,5,6.5,32,bw,99.7805122395,2019_may_29_1053,017,256,20,5,aingere,Experiment_EEG_version,20,
Living_Things,../experiment_stimuli/bw_bc_bl/Living_Things/Animals/cheetah_15.jpg,Animals,0,cheetah,0,72,72,16,320.202136892,nV_V,2,320.207594487,321.474805117,1,2,0.90202843491,322.397405479,2,0,0.26080358075,5,6.0,32,bw,99.7805122395,2019_may_29_1053,017,256,20,5,aingere,Experiment_EEG_version,20,
Nonliving_Things,../experiment_stimuli/bw_bc_bl/Nonliving_Things/Kitchen_Uten/saucepan_19.jpg,Kitchen_Uten,0,saucepan,0,73,73,71,324.391245089,V_nV,2,324.396430361,325.653890179,1,2,1.2028417585,326.877311666,3,0,1.66387428017,5,6.0,32,bw,99.7805122395,2019_may_29_1053,017,256,20,5,aingere,Experiment_EEG_version,20,
Living_Things,../experiment_stimuli/bw_bc_bl/Living_Things/Animals/lioness_18.jpg,Animals,0,lioness,0,74,74,48,330.274059312,nV_V,2,330.279154243,331.506646348,1,2,1.63380892109,333.160981384,1,1,0.300904630218,5,6.0,32,bw,99.7805122395,2019_may_29_1053,017,256,20,5,aingere,Experiment_EEG_version,20,
Living_Things,../experiment_stimuli/bw_bc_bl/Living_Things/Animals/cow_19.jpg,Animals,0,cow,0,75,75,20,335.194752638,V_nV,1,335.199778329,336.447360183,1,1,0.982370878337,337.450272621,2,0,0.310901784105,5,6.0,32,bw,99.7805122395,2019_may_29_1053,017,256,20,5,aingere,Experiment_EEG_version,20,
Nonliving_Things,../experiment_stimuli/bw_bc_bl/Nonliving_Things/Buildings/church_14.jpg,Buildings,0,church,0,76,76,17,339.494102647,V_nV,2,339.499142508,340.726660063,1,2,1.45382368285,342.201045744,1,1,0.330944779096,5,7.5,32,bw,99.7805122395,2019_may_29_1053,017,256,20,5,aingere,Experiment_EEG_version,20,
Living_Things,../experiment_stimuli/bw_bc_bl/Living_Things/Animals/turtle_24.jpg,Animals,0,turtle,0,77,77,90,344.264446817,V_nV,1,344.269647995,345.517079201,1,1,1.01242745155,346.550040181,1,1,0.260818399955,5,6.0,32,bw,99.7805122395,2019_may_29_1053,017,256,20,5,aingere,Experiment_EEG_version,20,
Nonliving_Things,../experiment_stimuli/bw_bc_bl/Nonliving_Things/Furniture/couch_15.jpg,Furniture,0,couch,0,78,78,19,348.543757839,V_nV,2,348.548796173,349.806398876,1,2,0.701752197929,350.5287059,2,0,0.300869694678,5,7.0,32,bw,99.7805122395,2019_may_29_1053,017,256,20,5,aingere,Experiment_EEG_version,20,
Living_Things,../experiment_stimuli/bw_bc_bl/Living_Things/Animals/tapir_24.jpg,Animals,0,tapir,0,79,79,82,352.562486518,V_nV,1,352.567499488,353.815132086,1,1,0.511348582804,354.347023273,2,0,0.822017655941,5,6.5,32,bw,99.7805122395,2019_may_29_1053,017,256,20,5,aingere,Experiment_EEG_version,20,
Living_Things,../experiment_stimuli/bw_bc_bl/Living_Things/Birds/goose_16.jpg,Birds,0,goose,0,80,80,34,356.901918423,nV_V,2,356.906986866,358.144528123,1,2,0.771919692867,358.936999071,2,0,0.320950956317,5,8.0,32,bw,99.7805122395,2019_may_29_1053,017,256,20,5,aingere,Experiment_EEG_version,20,
Living_Things,../experiment_stimuli/bw_bc_bl/Living_Things/Insects/dragonfly_11.jpg,Insects,0,dragonfly,0,81,81,24,360.990808029,V_nV,1,360.995978704,362.223397697,0,2,1.10265412577,363.346605002,1,1,0.260791065637,5,6.0,32,bw,99.7805122395,2019_may_29_1053,017,256,20,5,aingere,Experiment_EEG_version,20,
Living_Things,../experiment_stimuli/bw_bc_bl/Living_Things/Insects/ladybird_10.jpg,Insects,0,ladybird,0,82,82,45,365.340266709,V_nV,1,365.346868062,366.602914727,1,1,0.721793076256,367.345298355,1,1,0.240773521597,5,6.0,32,bw,99.7805122395,2019_may_29_1053,017,256,20,5,aingere,Experiment_EEG_version,20,
Living_Things,../experiment_stimuli/bw_bc_bl/Living_Things/Birds/hummingbird_22.jpg,Birds,0,hummingbird,0,83,83,42,369.318946476,V_nV,1,369.324118349,370.621650474,1,1,1.01246280456,371.654668378,1,1,0.26078712591,5,6.0,32,bw,99.7805122395,2019_may_29_1053,017,256,20,5,aingere,Experiment_EEG_version,20,
Nonliving_Things,../experiment_stimuli/bw_bc_bl/Nonliving_Things/Musical_Inst/piano__9.jpg,Musical_Inst,0,piano,0,84,84,62,373.658350265,nV_V,1,373.666651312,374.971108803,0,2,1.08260219847,376.074283872,1,1,0.200666674878,5,6.5,32,bw,99.7805122395,2019_may_29_1053,017,256,20,5,aingere,Experiment_EEG_version,20,
Nonliving_Things,../experiment_stimuli/bw_bc_bl/Nonliving_Things/Furniture/chair_7.jpg,Furniture,0,chair,0,85,85,15,378.007824365,nV_V,1,378.01471138,379.340610165,1,1,0.862120950362,380.223285227,3,0,0.300881578121,5,6.5,32,bw,99.7805122395,2019_may_29_1053,017,256,20,5,aingere,Experiment_EEG_version,20,
Nonliving_Things,../experiment_stimuli/bw_bc_bl/Nonliving_Things/Vehicles/ship_17.jpg,Vehicles,0,ship,0,86,86,76,382.267084167,nV_V,1,382.272303299,383.589847046,1,1,1.54358752863,385.153976277,3,0,0.310899359407,5,7.0,32,bw,99.7805122395,2019_may_29_1053,017,256,20,5,aingere,Experiment_EEG_version,20,
Nonliving_Things,../experiment_stimuli/bw_bc_bl/Nonliving_Things/Vehicles/boat_7.jpg,Vehicles,0,boat,0,87,87,7,387.197788605,V_nV,2,387.202991613,388.490520234,1,2,0.681543299463,389.192608682,3,0,0.330953470664,5,7.0,32,bw,99.7805122395,2019_may_29_1053,017,256,20,5,aingere,Experiment_EEG_version,20,
Nonliving_Things,../experiment_stimuli/bw_bc_bl/Nonliving_Things/Musical_Inst/trumpet_17.jpg,Musical_Inst,0,trumpet,0,88,88,88,391.256614532,V_nV,2,391.262023267,392.51926004,1,2,0.681726439623,393.221558918,2,0,0.240746822674,5,6.0,32,bw,99.7805122395,2019_may_29_1053,017,256,20,5,aingere,Experiment_EEG_version,20,
Nonliving_Things,../experiment_stimuli/bw_bc_bl/Nonliving_Things/Buildings/house_15.jpg,Buildings,0,house,0,89,89,41,395.195177224,V_nV,2,395.200555888,396.447799927,1,2,0.621578684542,397.089935565,2,0,0.28083258355,5,6.0,32,bw,99.7805122395,2019_may_29_1053,017,256,20,5,aingere,Experiment_EEG_version,20,
Nonliving_Things,../experiment_stimuli/bw_bc_bl/Nonliving_Things/Furniture/armchair_21.jpg,Furniture,0,armchair,0,90,90,2,399.103680658,V_nV,2,399.108891057,400.356299741,1,2,0.541403234703,400.918248208,2,0,0.261203954928,5,8.0,32,bw,99.7805122395,2019_may_29_1053,017,256,20,5,aingere,Experiment_EEG_version,20,
Living_Things,../experiment_stimuli/bw_bc_bl/Living_Things/Birds/ostrich_13.jpg,Birds,0,ostrich,0,91,91,56,402.922168265,V_nV,1,402.929294084,404.164584851,0,2,0.892173685366,405.077325437,1,1,0.290855650092,5,6.0,32,bw,99.7805122395,2019_may_29_1053,017,256,20,5,aingere,Experiment_EEG_version,20,
Nonliving_Things,../experiment_stimuli/bw_bc_bl/Nonliving_Things/Musical_Inst/saxophone_1.jpg,Musical_Inst,0,saxophone,0,92,92,72,407.101054067,nV_V,1,407.106689975,408.353681383,1,1,1.40327306092,409.777518484,1,1,0.511328763328,5,6.0,32,bw,99.7805122395,2019_may_29_1053,017,256,20,5,aingere,Experiment_EEG_version,20,
Nonliving_Things,../experiment_stimuli/bw_bc_bl/Nonliving_Things/Vehicles/tractor_7.jpg,Vehicles,0,tractor,0,93,93,86,412.031774872,V_nV,2,412.037329515,413.284416827,1,2,0.962321327068,414.26732042,2,0,0.270811907016,5,6.5,32,bw,99.7805122395,2019_may_29_1053,017,256,20,5,aingere,Experiment_EEG_version,20,
Living_Things,../experiment_stimuli/bw_bc_bl/Living_Things/Animals/giraffe_14.jpg,Animals,0,giraffe,0,94,94,32,416.271040322,nV_V,2,416.278433629,417.513605594,1,2,0.822043888969,418.356210196,1,1,0.220702151302,5,6.0,32,bw,99.7805122395,2019_may_29_1053,017,256,20,5,aingere,Experiment_EEG_version,20,
Living_Things,../experiment_stimuli/bw_bc_bl/Living_Things/Marine_creatures/shark_16.jpg,Marine_creatures,0,shark,0,95,95,75,420.309771454,nV_V,2,420.3157417,421.562403203,1,2,0.481270945631,422.064261049,1,1,0.240743127652,5,6.0,32,bw,99.7805122395,2019_may_29_1053,017,256,20,5,aingere,Experiment_EEG_version,20,
