category,probe_path,subcategory,fixation_duration,label,trials.thisRepN,trials.thisTrialN,trials.thisN,trials.thisIndex,image_onset_time,response_window,correctAns,probe_onset,discrim_resptime,response.corr,response.keys,response.rt,visible_resptime,visible.keys,visible.corr,visible.rt,probeFrames,jitter2,n_square,experiment_color,frameRate,date,session,image_size,premask_dur,probeFrames,participant,expName,postmask_dur,
Living_Things,../experiment_stimuli/bw_bc_bl/Living_Things/Birds/goldfinch_19.jpg,Birds,0,goldfinch,0,0,0,33,3.71961531986,V_nV,1,3.74103784759,5.00230506621,0,2,1.4732571413,6.50641334464,3,0,0.932256990578,5,6.5,32,bw,99.7827169143,2019_may_16_1608,001 ,256,20,5,aingere,Experiment_EEG_version,20,
Living_Things,../experiment_stimuli/bw_bc_bl/Living_Things/Marine_creatures/pomfret_1.jpg,Marine_creatures,0,pomfret,0,1,1,65,9.17146739503,nV_V,2,9.17660174251,10.414065573,1,2,0.852091469569,11.2867138347,2,0,0.521364089684,5,8.0,32,bw,99.7827169143,2019_may_16_1608,001 ,256,20,5,aingere,Experiment_EEG_version,20,
Living_Things,../experiment_stimuli/bw_bc_bl/Living_Things/Marine_creatures/narwhal_6.jpg,Marine_creatures,0,narwhal,0,2,2,55,13.5409554528,nV_V,2,13.5457902332,14.7735420861,1,2,4.04902589158,18.8431054164,2,0,0.902185026673,5,6.5,32,bw,99.7827169143,2019_may_16_1608,001 ,256,20,5,aingere,Experiment_EEG_version,20,
Nonliving_Things,../experiment_stimuli/bw_bc_bl/Nonliving_Things/Furniture/bedside-table_24.jpg,Furniture,0,bedside-table,0,3,3,6,21.4782060877,V_nV,2,21.4834985456,22.710795371,1,2,1.78410704294,24.5154378531,2,0,0.651640652446,5,6.0,32,bw,99.7827169143,2019_may_16_1608,001 ,256,20,5,aingere,Experiment_EEG_version,20,
Nonliving_Things,../experiment_stimuli/bw_bc_bl/Nonliving_Things/Kitchen_Uten/small-saucepan_22.jpg,Kitchen_Uten,0,small-saucepan,0,4,4,77,26.9000184803,nV_V,1,26.9055173262,28.132578159,0,2,0.491290201084,28.6444681326,2,0,1.02244443225,5,6.5,32,bw,99.7827169143,2019_may_16_1608,001 ,256,20,5,aingere,Experiment_EEG_version,20,
Nonliving_Things,../experiment_stimuli/bw_bc_bl/Nonliving_Things/Vehicles/motorbike_24.jpg,Vehicles,0,motorbike,0,5,5,54,31.3997733226,V_nV,2,31.4052067149,32.6323584596,1,2,3.54797750723,36.200898304,3,0,1.03246711579,5,6.5,32,bw,99.7827169143,2019_may_16_1608,001 ,256,20,5,aingere,Experiment_EEG_version,20,
Nonliving_Things,../experiment_stimuli/bw_bc_bl/Nonliving_Things/Buildings/cathedral_8.jpg,Buildings,0,cathedral,0,6,6,14,38.9662253771,nV_V,1,38.9710677211,40.1988027623,0,2,4.67037428601,44.8897643285,2,0,0.671679380583,5,6.5,32,bw,99.7827169143,2019_may_16_1608,001 ,256,20,5,aingere,Experiment_EEG_version,20,
Living_Things,../experiment_stimuli/bw_bc_bl/Living_Things/Animals/elephant_0.jpg,Animals,0,elephant,0,7,7,27,47.2943243166,nV_V,2,47.2993228839,48.5269056641,1,2,1.06255592545,49.6110550473,2,0,0.711771325208,5,6.0,32,bw,99.7827169143,2019_may_16_1608,001 ,256,20,5,aingere,Experiment_EEG_version,20,
Nonliving_Things,../experiment_stimuli/bw_bc_bl/Nonliving_Things/Furniture/filling-cabinet_12.jpg,Furniture,0,filling-cabinet,0,8,8,29,52.0547202192,V_nV,2,52.0594908615,53.2872609397,1,2,0.721830805182,54.0296399769,2,0,0.861949512735,5,6.5,32,bw,99.7827169143,2019_may_16_1608,001 ,256,20,5,aingere,Experiment_EEG_version,20,
Nonliving_Things,../experiment_stimuli/bw_bc_bl/Nonliving_Things/Musical_Inst/saxophone_17.jpg,Musical_Inst,0,saxophone,0,9,9,72,56.6246083544,nV_V,1,56.6295063855,57.8571910027,0,2,3.86863347492,61.7463922357,2,0,1.14270916488,5,6.5,32,bw,99.7827169143,2019_may_16_1608,001 ,256,20,5,aingere,Experiment_EEG_version,20,
Nonliving_Things,../experiment_stimuli/bw_bc_bl/Nonliving_Things/Musical_Inst/tuba_24.jpg,Musical_Inst,0,tuba,0,10,10,89,64.6219950187,nV_V,1,64.6278114055,65.8545702235,0,2,1.81416124036,67.6893360672,2,0,1.21286327648,5,7.0,32,bw,99.7827169143,2019_may_16_1608,001 ,256,20,5,aingere,Experiment_EEG_version,20,
Living_Things,../experiment_stimuli/bw_bc_bl/Living_Things/Birds/barn-owl_11.jpg,Birds,0,barn-owl,0,11,11,4,70.635061489,V_nV,1,70.641565704,71.8676465583,0,2,0.701751611545,72.5899438269,2,0,0.511330879992,5,7.5,32,bw,99.7827169143,2019_may_16_1608,001 ,256,20,5,aingere,Experiment_EEG_version,20,
Living_Things,../experiment_stimuli/bw_bc_bl/Living_Things/Animals/cheetah_23.jpg,Animals,0,cheetah,0,12,12,16,74.8341982758,nV_V,2,74.8391164723,76.0667717702,1,2,4.68040319148,80.7677291597,2,0,0.591521513532,5,7.5,32,bw,99.7827169143,2019_may_16_1608,001 ,256,20,5,aingere,Experiment_EEG_version,20,
Living_Things,../experiment_stimuli/bw_bc_bl/Living_Things/Birds/hummingbird_9.jpg,Birds,0,hummingbird,0,13,13,42,83.0921390547,nV_V,2,83.0970822735,84.324728173,1,2,0.811997288256,85.1572729113,2,0,0.842058602022,5,6.0,32,bw,99.7827169143,2019_may_16_1608,001 ,256,20,5,aingere,Experiment_EEG_version,20,
Nonliving_Things,../experiment_stimuli/bw_bc_bl/Nonliving_Things/Buildings/palace_9.jpg,Buildings,0,palace,0,14,14,58,87.7322272181,nV_V,1,87.7372344245,88.9648086558,0,2,0.842058624607,89.8274395763,3,0,0.731816594489,5,6.0,32,bw,99.7827169143,2019_may_16_1608,001 ,256,20,5,aingere,Experiment_EEG_version,20,
Nonliving_Things,../experiment_stimuli/bw_bc_bl/Nonliving_Things/Kitchen_Uten/fondue_18.jpg,Kitchen_Uten,0,fondue,0,15,15,30,92.2921368571,nV_V,1,92.297405804,93.5247275764,0,2,1.58350816031,95.1287918069,2,0,0.631591559737,5,6.0,32,bw,99.7827169143,2019_may_16_1608,001 ,256,20,5,aingere,Experiment_EEG_version,20,
Living_Things,../experiment_stimuli/bw_bc_bl/Living_Things/Animals/turtle_20.jpg,Animals,0,turtle,0,16,16,90,97.4934527122,V_nV,1,97.4982978568,98.7260333791,0,2,2.61590972415,101.362503286,3,0,0.551459598588,5,6.0,32,bw,99.7827169143,2019_may_16_1608,001 ,256,20,5,aingere,Experiment_EEG_version,20,
Nonliving_Things,../experiment_stimuli/bw_bc_bl/Nonliving_Things/Furniture/bed_1.jpg,Furniture,0,bed,0,17,17,5,103.646830526,V_nV,2,103.652324609,104.879430535,1,2,1.38325073104,106.283207228,2,0,0.601527858991,5,6.5,32,bw,99.7827169143,2019_may_16_1608,001 ,256,20,5,aingere,Experiment_EEG_version,20,
Nonliving_Things,../experiment_stimuli/bw_bc_bl/Nonliving_Things/Musical_Inst/drum_2.jpg,Musical_Inst,0,drum,0,18,18,25,108.617635495,V_nV,2,108.622515496,109.850213632,1,2,3.95882636728,113.829599938,2,0,0.992419095361,5,7.0,32,bw,99.7827169143,2019_may_16_1608,001 ,256,20,5,aingere,Experiment_EEG_version,20,
Living_Things,../experiment_stimuli/bw_bc_bl/Living_Things/Birds/kiwi_12.jpg,Birds,0,kiwi,0,19,19,44,116.554886806,V_nV,1,116.560491293,117.787490747,0,2,1.89433674247,119.702380165,2,0,0.902185459156,5,7.0,32,bw,99.7827169143,2019_may_16_1608,001 ,256,20,5,aingere,Experiment_EEG_version,20,
Nonliving_Things,../experiment_stimuli/bw_bc_bl/Nonliving_Things/Buildings/castle_24.jpg,Buildings,0,castle,0,20,20,12,122.337452724,nV_V,1,122.342285286,123.570037699,0,2,1.34315527882,124.933761827,2,0,0.872119194129,5,7.5,32,bw,99.7827169143,2019_may_16_1608,001 ,256,20,5,aingere,Experiment_EEG_version,20,
Nonliving_Things,../experiment_stimuli/bw_bc_bl/Nonliving_Things/Vehicles/plane_24.jpg,Vehicles,0,plane,0,21,21,64,127.538769263,nV_V,1,127.543649863,128.771343363,0,2,1.4233192174,130.215232508,2,0,0.47125646146,5,6.5,32,bw,99.7827169143,2019_may_16_1608,001 ,256,20,5,aingere,Experiment_EEG_version,20,
Nonliving_Things,../experiment_stimuli/bw_bc_bl/Nonliving_Things/Buildings/church_10.jpg,Buildings,0,church,0,22,22,17,132.419368185,nV_V,1,132.425680159,133.651957841,0,2,9.28043523303,142.952955644,2,0,0.541406261269,5,6.5,32,bw,99.7827169143,2019_may_16_1608,001 ,256,20,5,aingere,Experiment_EEG_version,20,
Living_Things,../experiment_stimuli/bw_bc_bl/Living_Things/Birds/partridge_10.jpg,Birds,0,partridge,0,23,23,59,145.227211574,V_nV,1,145.233315377,146.459803188,0,2,0.842092977487,147.32246681,2,0,0.511332263355,5,6.0,32,bw,99.7827169143,2019_may_16_1608,001 ,256,20,5,aingere,Experiment_EEG_version,20,
Nonliving_Things,../experiment_stimuli/bw_bc_bl/Nonliving_Things/Vehicles/ship_13.jpg,Vehicles,0,ship,0,24,24,76,149.566647964,nV_V,1,149.572212519,150.799237638,0,2,1.36318481539,152.18299602,2,0,0.952292143716,5,7.5,32,bw,99.7827169143,2019_may_16_1608,001 ,256,20,5,aingere,Experiment_EEG_version,20,
Nonliving_Things,../experiment_stimuli/bw_bc_bl/Nonliving_Things/Kitchen_Uten/pot_17.jpg,Kitchen_Uten,0,pot,0,25,25,66,154.868174744,nV_V,1,154.873076629,156.100764972,0,2,1.81420241646,157.93551927,3,0,0.852111093234,5,6.0,32,bw,99.7827169143,2019_may_16_1608,001 ,256,20,5,aingere,Experiment_EEG_version,20,
Living_Things,../experiment_stimuli/bw_bc_bl/Living_Things/Marine_creatures/shark_9.jpg,Marine_creatures,0,shark,0,26,26,75,160.520457431,V_nV,1,160.525339669,161.753067834,0,2,0.79195834964,162.575592584,3,0,0.621579567785,5,6.0,32,bw,99.7827169143,2019_may_16_1608,001 ,256,20,5,aingere,Experiment_EEG_version,20,
Nonliving_Things,../experiment_stimuli/bw_bc_bl/Nonliving_Things/Vehicles/van_4.jpg,Vehicles,0,van,0,27,27,91,164.930053188,V_nV,2,164.934989332,166.162629968,1,2,2.93660211994,169.119791091,2,0,0.842055763584,5,6.0,32,bw,99.7827169143,2019_may_16_1608,001 ,256,20,5,aingere,Experiment_EEG_version,20,
Living_Things,../experiment_stimuli/bw_bc_bl/Living_Things/Marine_creatures/manatee_4.jpg,Marine_creatures,0,manatee,0,28,28,52,171.694755458,V_nV,1,171.699540833,172.92734055,0,2,1.2728371094,174.220757658,3,0,0.74183572561,5,7.5,32,bw,99.7827169143,2019_may_16_1608,001 ,256,20,5,aingere,Experiment_EEG_version,20,
Living_Things,../experiment_stimuli/bw_bc_bl/Living_Things/Animals/cat_26.jpg,Animals,0,cat,0,29,29,13,176.695625729,V_nV,1,176.701284407,177.928207629,0,2,0.45119613572,178.399969696,2,0,0.611548572546,5,6.0,32,bw,99.7827169143,2019_may_16_1608,001 ,256,20,5,aingere,Experiment_EEG_version,20,
Living_Things,../experiment_stimuli/bw_bc_bl/Living_Things/Birds/toucan_15.jpg,Birds,0,toucan,0,30,30,85,180.744428548,nV_V,2,180.749318275,181.977007486,1,2,1.40327382786,183.400831482,2,0,0.791938488954,5,6.0,32,bw,99.7827169143,2019_may_16_1608,001 ,256,20,5,aingere,Experiment_EEG_version,20,
Nonliving_Things,../experiment_stimuli/bw_bc_bl/Nonliving_Things/Musical_Inst/violin_1.jpg,Musical_Inst,0,violin,0,31,31,92,185.925737408,nV_V,1,185.930674683,187.158281598,0,2,0.992392513203,188.171231324,2,0,0.912255303585,5,6.0,32,bw,99.7827169143,2019_may_16_1608,001 ,256,20,5,aingere,Experiment_EEG_version,20,
Living_Things,../experiment_stimuli/bw_bc_bl/Living_Things/Marine_creatures/killer-whale_25.jpg,Marine_creatures,0,killer-whale,0,32,32,43,190.81632536,nV_V,2,190.821159945,192.048931121,1,2,0.441189497476,192.510647429,2,0,0.641624957789,5,6.5,32,bw,99.7827169143,2019_may_16_1608,001 ,256,20,5,aingere,Experiment_EEG_version,20,
Nonliving_Things,../experiment_stimuli/bw_bc_bl/Nonliving_Things/Buildings/granary_23.jpg,Buildings,0,granary,0,33,33,35,194.885161182,nV_V,1,194.890393077,196.117753315,0,2,0.340966988937,196.47926657,2,0,0.671681143809,5,6.5,32,bw,99.7827169143,2019_may_16_1608,001 ,256,20,5,aingere,Experiment_EEG_version,20,
Nonliving_Things,../experiment_stimuli/bw_bc_bl/Nonliving_Things/Furniture/chair_12.jpg,Furniture,0,chair,0,34,34,15,198.883880031,V_nV,2,198.888774724,200.116444521,1,2,1.00244301942,201.139456318,2,0,0.661663305946,5,6.5,32,bw,99.7827169143,2019_may_16_1608,001 ,256,20,5,aingere,Experiment_EEG_version,20,
Living_Things,../experiment_stimuli/bw_bc_bl/Living_Things/Animals/horse_14.jpg,Animals,0,horse,0,35,35,40,203.534015246,nV_V,2,203.540842994,204.766552522,1,2,4.57016531518,209.357268728,2,0,0.621613120195,5,6.0,32,bw,99.7827169143,2019_may_16_1608,001 ,256,20,5,aingere,Experiment_EEG_version,20,
Nonliving_Things,../experiment_stimuli/bw_bc_bl/Nonliving_Things/Musical_Inst/trumpet_22.jpg,Musical_Inst,0,trumpet,0,36,36,88,211.711752072,nV_V,1,211.717735106,212.944332126,0,2,0.862136562588,213.827030229,2,0,0.571467872243,5,8.0,32,bw,99.7827169143,2019_may_16_1608,001 ,256,20,5,aingere,Experiment_EEG_version,20,
Living_Things,../experiment_stimuli/bw_bc_bl/Living_Things/Birds/ostrich_6.jpg,Birds,0,ostrich,0,37,37,56,216.131349897,nV_V,2,216.13629589,217.363944327,1,2,1.02228871267,218.406808639,2,0,0.521355232573,5,6.0,32,bw,99.7827169143,2019_may_16_1608,001 ,256,20,5,aingere,Experiment_EEG_version,20,
Living_Things,../experiment_stimuli/bw_bc_bl/Living_Things/Animals/zebra_8.jpg,Animals,0,zebra,0,38,38,95,220.661201688,V_nV,1,220.667129618,221.8937874,0,2,0.561437752447,222.475794369,2,0,0.691721627372,5,7.5,32,bw,99.7827169143,2019_may_16_1608,001 ,256,20,5,aingere,Experiment_EEG_version,20,
Nonliving_Things,../experiment_stimuli/bw_bc_bl/Nonliving_Things/Furniture/wardrobe_22.jpg,Furniture,0,wardrobe,0,39,39,93,224.900422596,nV_V,1,224.905279026,226.132999372,0,2,0.561448102002,226.715047803,2,0,0.57147095853,5,7.5,32,bw,99.7827169143,2019_may_16_1608,001 ,256,20,5,aingere,Experiment_EEG_version,20,
Living_Things,../experiment_stimuli/bw_bc_bl/Living_Things/Insects/scorpion_8.jpg,Insects,0,scorpion,0,40,40,73,229.019398861,nV_V,2,229.02534563,230.25196166,1,2,0.791944372351,231.064463859,3,0,0.892206579214,5,6.5,32,bw,99.7827169143,2019_may_16_1608,001 ,256,20,5,aingere,Experiment_EEG_version,20,
Nonliving_Things,../experiment_stimuli/bw_bc_bl/Nonliving_Things/Kitchen_Uten/saucepan_22.jpg,Kitchen_Uten,0,saucepan,0,41,41,71,233.689530832,nV_V,1,233.695355989,234.92214666,0,2,0.852083876031,235.79480103,2,0,0.942267099395,5,6.5,32,bw,99.7827169143,2019_may_16_1608,001 ,256,20,5,aingere,Experiment_EEG_version,20,
Nonliving_Things,../experiment_stimuli/bw_bc_bl/Nonliving_Things/Furniture/Chest-of-drawers_1.jpg,Furniture,0,Chest-of-drawers,0,42,42,0,238.469917963,V_nV,2,238.474784991,239.702498176,1,2,5.02113616851,244.744186373,2,0,0.511352593894,5,6.5,32,bw,99.7827169143,2019_may_16_1608,001 ,256,20,5,aingere,Experiment_EEG_version,20,
Living_Things,../experiment_stimuli/bw_bc_bl/Living_Things/Birds/owl_15.jpg,Birds,0,owl,0,43,43,57,246.988441499,V_nV,1,246.994356392,248.221019775,0,2,0.611554621137,248.853145534,2,0,1.21285530319,5,7.0,32,bw,99.7827169143,2019_may_16_1608,001 ,256,20,5,aingere,Experiment_EEG_version,20,
Living_Things,../experiment_stimuli/bw_bc_bl/Living_Things/Insects/ladybird_23.jpg,Insects,0,ladybird,0,44,44,45,251.79890582,V_nV,1,251.803743833,253.041496547,0,2,0.571504796506,253.633570691,3,0,0.842052286374,5,7.0,32,bw,99.7827169143,2019_may_16_1608,001 ,256,20,5,aingere,Experiment_EEG_version,20,
Nonliving_Things,../experiment_stimuli/bw_bc_bl/Nonliving_Things/Kitchen_Uten/frying-pan_14.jpg,Kitchen_Uten,0,frying-pan,0,45,45,31,256.208479792,V_nV,2,256.213295332,257.441063568,1,2,0.671685219044,258.133311891,3,0,0.47109402006,5,7.0,32,bw,99.7827169143,2019_may_16_1608,001 ,256,20,5,aingere,Experiment_EEG_version,20,
Living_Things,../experiment_stimuli/bw_bc_bl/Living_Things/Animals/hippopotamus_2.jpg,Animals,0,hippopotamus,0,46,46,39,260.337454982,V_nV,1,260.344469333,261.570040931,0,2,0.54140214494,262.131987883,2,0,0.922231303528,5,6.0,32,bw,99.7827169143,2019_may_16_1608,001 ,256,20,5,aingere,Experiment_EEG_version,20,
Living_Things,../experiment_stimuli/bw_bc_bl/Living_Things/Marine_creatures/dolphin_0.jpg,Marine_creatures,0,dolphin,0,47,47,23,264.787129151,nV_V,2,264.792147601,266.019716126,1,2,0.471253600786,266.51150985,3,0,0.661832863465,5,6.0,32,bw,99.7827169143,2019_may_16_1608,001 ,256,20,5,aingere,Experiment_EEG_version,20,
Nonliving_Things,../experiment_stimuli/bw_bc_bl/Nonliving_Things/Kitchen_Uten/cup_7.jpg,Kitchen_Uten,0,cup,0,48,48,22,268.906089154,V_nV,2,268.910924171,270.138701478,1,2,0.541441373527,270.700676298,2,0,0.661660118029,5,6.0,32,bw,99.7827169143,2019_may_16_1608,001 ,256,20,5,aingere,Experiment_EEG_version,20,
Living_Things,../experiment_stimuli/bw_bc_bl/Living_Things/Animals/giraffe_23.jpg,Animals,0,giraffe,0,49,49,32,273.095255181,nV_V,2,273.100257684,274.327785139,1,2,1.31307587889,275.661390058,2,0,0.731812057085,5,6.0,32,bw,99.7827169143,2019_may_16_1608,001 ,256,20,5,aingere,Experiment_EEG_version,20,
Nonliving_Things,../experiment_stimuli/bw_bc_bl/Nonliving_Things/Kitchen_Uten/coking-pot_18.jpg,Kitchen_Uten,0,coking-pot,0,50,50,18,278.126182059,nV_V,1,278.131069436,279.358714832,0,2,0.822018682491,280.201337009,2,0,0.521354014636,5,7.0,32,bw,99.7827169143,2019_may_16_1608,001 ,256,20,5,aingere,Experiment_EEG_version,20,
Nonliving_Things,../experiment_stimuli/bw_bc_bl/Nonliving_Things/Furniture/rocking-chair_7.jpg,Furniture,0,rocking-chair,0,51,51,69,282.455545045,V_nV,2,282.46164372,283.688123393,1,2,0.761903486797,284.48065176,2,0,0.521389010479,5,6.0,32,bw,99.7827169143,2019_may_16_1608,001 ,256,20,5,aingere,Experiment_EEG_version,20,
Living_Things,../experiment_stimuli/bw_bc_bl/Living_Things/Birds/sparrow_26.jpg,Birds,0,sparrow,0,52,52,79,286.734855409,V_nV,1,286.73972105,287.967447993,0,2,0.751898250659,288.739901773,2,0,0.942117665312,5,6.0,32,bw,99.7827169143,2019_may_16_1608,001 ,256,20,5,aingere,Experiment_EEG_version,20,
Nonliving_Things,../experiment_stimuli/bw_bc_bl/Nonliving_Things/Buildings/mill_14.jpg,Buildings,0,mill,0,53,53,53,291.415017198,nV_V,1,291.420027051,292.647603207,0,2,1.82420424302,294.492360851,2,0,0.611395157175,5,6.0,32,bw,99.7827169143,2019_may_16_1608,001 ,256,20,5,aingere,Experiment_EEG_version,20,
Nonliving_Things,../experiment_stimuli/bw_bc_bl/Nonliving_Things/Vehicles/bus_9.jpg,Vehicles,0,bus,0,54,54,9,296.836810312,nV_V,1,296.842890045,298.069387186,0,2,0.541411592043,298.631363338,2,0,0.451224233489,5,6.0,32,bw,99.7827169143,2019_may_16_1608,001 ,256,20,5,aingere,Experiment_EEG_version,20,
Nonliving_Things,../experiment_stimuli/bw_bc_bl/Nonliving_Things/Kitchen_Uten/teapot_24.jpg,Kitchen_Uten,0,teapot,0,55,55,83,300.815456272,V_nV,2,300.821481479,302.048041469,1,2,0.751864096848,302.820449734,2,0,0.711772828945,5,7.0,32,bw,99.7827169143,2019_may_16_1608,001 ,256,20,5,aingere,Experiment_EEG_version,20,
Living_Things,../experiment_stimuli/bw_bc_bl/Living_Things/Birds/seagull_0.jpg,Birds,0,seagull,0,56,56,74,305.265146508,V_nV,1,305.269996965,306.497710465,0,2,1.30305338348,307.821323671,2,0,0.451198519208,5,6.0,32,bw,99.7827169143,2019_may_16_1608,001 ,256,20,5,aingere,Experiment_EEG_version,20,
Living_Things,../experiment_stimuli/bw_bc_bl/Living_Things/Insects/dragonfly_16.jpg,Insects,0,dragonfly,0,57,57,24,310.005436274,nV_V,2,310.010412624,311.238015618,1,2,0.27065278159,311.529222353,2,0,0.751860247343,5,6.5,32,bw,99.7827169143,2019_may_16_1608,001 ,256,20,5,aingere,Experiment_EEG_version,20,
Living_Things,../experiment_stimuli/bw_bc_bl/Living_Things/Birds/duck_5.jpg,Birds,0,duck,0,58,58,26,314.014165577,V_nV,1,314.019030778,315.246736707,0,2,0.902029340737,316.169321175,2,0,0.882179290638,5,7.5,32,bw,99.7827169143,2019_may_16_1608,001 ,256,20,5,aingere,Experiment_EEG_version,20,
Living_Things,../experiment_stimuli/bw_bc_bl/Living_Things/Marine_creatures/lobster_18.jpg,Marine_creatures,0,lobster,0,59,59,49,318.784515289,nV_V,2,318.789407662,320.017129621,1,2,0.521358127357,320.559048871,2,0,0.711772321258,5,6.0,32,bw,99.7827169143,2019_may_16_1608,001 ,256,20,5,aingere,Experiment_EEG_version,20,
Nonliving_Things,../experiment_stimuli/bw_bc_bl/Nonliving_Things/Vehicles/train_17.jpg,Vehicles,0,train,0,60,60,87,323.003690281,V_nV,2,323.009954022,324.236281726,1,2,0.441184072639,324.698007091,3,0,1.33313376072,5,6.5,32,bw,99.7827169143,2019_may_16_1608,001 ,256,20,5,aingere,Experiment_EEG_version,20,
Living_Things,../experiment_stimuli/bw_bc_bl/Living_Things/Birds/penguin_14.jpg,Birds,0,penguin,0,61,61,61,327.764046575,V_nV,1,327.768993347,328.996629528,0,2,0.832041658927,329.849237799,2,0,0.842039677547,5,7.5,32,bw,99.7827169143,2019_may_16_1608,001 ,256,20,5,aingere,Experiment_EEG_version,20,
Living_Things,../experiment_stimuli/bw_bc_bl/Living_Things/Birds/goose_25.jpg,Birds,0,goose,0,62,62,34,332.424173595,V_nV,1,332.43031565,333.656753127,0,2,0.75186046923,334.429172982,3,0,0.681710097939,5,6.0,32,bw,99.7827169143,2019_may_16_1608,001 ,256,20,5,aingere,Experiment_EEG_version,20,
Nonliving_Things,../experiment_stimuli/bw_bc_bl/Nonliving_Things/Furniture/sofa_6.jpg,Furniture,0,sofa,0,63,63,78,336.833754623,nV_V,1,336.838573521,338.066347076,0,2,0.811993160401,338.898890025,2,0,0.491295708227,5,7.5,32,bw,99.7827169143,2019_may_16_1608,001 ,256,20,5,aingere,Experiment_EEG_version,20,
Living_Things,../experiment_stimuli/bw_bc_bl/Living_Things/Marine_creatures/whale_12.jpg,Marine_creatures,0,whale,0,64,64,94,341.123132287,V_nV,1,341.128082212,342.355669763,0,2,0.631601811736,343.007824265,2,0,0.451207229868,5,6.5,32,bw,99.7827169143,2019_may_16_1608,001 ,256,20,5,aingere,Experiment_EEG_version,20,
Living_Things,../experiment_stimuli/bw_bc_bl/Living_Things/Birds/hen_23.jpg,Birds,0,hen,0,65,65,38,345.191928677,nV_V,2,345.196957019,346.424512367,1,2,0.61156254611,347.066643847,2,0,0.53138146142,5,6.0,32,bw,99.7827169143,2019_may_16_1608,001 ,256,20,5,aingere,Experiment_EEG_version,20,
Nonliving_Things,../experiment_stimuli/bw_bc_bl/Nonliving_Things/Musical_Inst/piano__23.jpg,Musical_Inst,0,piano,0,66,66,62,349.330931551,V_nV,2,349.337143488,350.563512184,1,2,0.661663197097,351.24571091,3,0,0.68170210172,5,7.0,32,bw,99.7827169143,2019_may_16_1608,001 ,256,20,5,aingere,Experiment_EEG_version,20,
Living_Things,../experiment_stimuli/bw_bc_bl/Living_Things/Animals/rhino_14.jpg,Animals,0,rhino,0,67,67,68,353.660340728,V_nV,1,353.665212203,354.892918677,0,2,0.731811319944,355.645301744,2,0,0.791952221887,5,6.0,32,bw,99.7827169143,2019_may_16_1608,001 ,256,20,5,aingere,Experiment_EEG_version,20,
Nonliving_Things,../experiment_stimuli/bw_bc_bl/Nonliving_Things/Furniture/lectern_8.jpg,Furniture,0,lectern,0,68,68,47,358.170143667,nV_V,1,358.174997338,359.402726807,0,2,0.711778911529,360.13506371,2,0,0.621570883668,5,6.5,32,bw,99.7827169143,2019_may_16_1608,001 ,256,20,5,aingere,Experiment_EEG_version,20,
Nonliving_Things,../experiment_stimuli/bw_bc_bl/Nonliving_Things/Buildings/house_13.jpg,Buildings,0,house,0,69,69,41,362.489530908,V_nV,2,362.494383211,363.722114305,1,2,0.591531460639,364.334195336,2,0,0.751704787253,5,6.0,32,bw,99.7827169143,2019_may_16_1608,001 ,256,20,5,aingere,Experiment_EEG_version,20,
Living_Things,../experiment_stimuli/bw_bc_bl/Living_Things/Birds/pigeon_23.jpg,Birds,0,pigeon,0,70,70,63,366.818942585,V_nV,1,366.824198524,368.051524267,0,2,0.421142055187,368.493236133,3,0,0.912206443492,5,6.0,32,bw,99.7827169143,2019_may_16_1608,001 ,256,20,5,aingere,Experiment_EEG_version,20,
Nonliving_Things,../experiment_stimuli/bw_bc_bl/Nonliving_Things/Furniture/couch_22.jpg,Furniture,0,couch,0,71,71,19,371.138337574,V_nV,2,371.143146332,372.370915636,1,2,0.651486117276,373.042961395,2,0,0.691733920365,5,6.0,32,bw,99.7827169143,2019_may_16_1608,001 ,256,20,5,aingere,Experiment_EEG_version,20,
Living_Things,../experiment_stimuli/bw_bc_bl/Living_Things/Animals/lioness_23.jpg,Animals,0,lioness,0,72,72,48,375.467790171,nV_V,2,375.472719597,376.700340256,1,2,0.892170666368,377.613044478,2,0,1.0324701909,5,6.0,32,bw,99.7827169143,2019_may_16_1608,001 ,256,20,5,aingere,Experiment_EEG_version,20,
Living_Things,../experiment_stimuli/bw_bc_bl/Living_Things/Birds/raven_0.jpg,Birds,0,raven,0,73,73,67,380.37842155,V_nV,1,380.384013391,381.601821285,0,2,0.451205049292,382.072735142,2,0,0.581490555778,5,6.0,32,bw,99.7827169143,2019_may_16_1608,001 ,256,20,5,aingere,Experiment_EEG_version,20,
Nonliving_Things,../experiment_stimuli/bw_bc_bl/Nonliving_Things/Vehicles/boat_14.jpg,Vehicles,0,boat,0,74,74,7,384.387135252,nV_V,1,384.391895932,385.61972607,0,2,0.962336969678,386.602622579,2,0,0.51132715831,5,6.0,32,bw,99.7827169143,2019_may_16_1608,001 ,256,20,5,aingere,Experiment_EEG_version,20,
Living_Things,../experiment_stimuli/bw_bc_bl/Living_Things/Birds/magpie_4.jpg,Birds,0,magpie,0,75,75,51,388.846834251,nV_V,2,388.851891927,390.079411899,1,2,0.902259176015,391.002234924,2,0,0.751892900909,5,6.0,32,bw,99.7827169143,2019_may_16_1608,001 ,256,20,5,aingere,Experiment_EEG_version,20,
Nonliving_Things,../experiment_stimuli/bw_bc_bl/Nonliving_Things/Vehicles/car_11.jpg,Vehicles,0,car,0,76,76,11,393.486918753,V_nV,2,393.491869084,394.719514766,1,2,0.441187564749,395.181242465,2,0,1.13268410158,5,7.5,32,bw,99.7827169143,2019_may_16_1608,001 ,256,20,5,aingere,Experiment_EEG_version,20,
Nonliving_Things,../experiment_stimuli/bw_bc_bl/Nonliving_Things/Musical_Inst/guitar_25.jpg,Musical_Inst,0,guitar,0,77,77,36,398.046834978,V_nV,2,398.05170598,399.279411446,1,2,0.781960981549,400.081929058,2,0,0.581327208318,5,6.0,32,bw,99.7827169143,2019_may_16_1608,001 ,256,20,5,aingere,Experiment_EEG_version,20,
Living_Things,../experiment_stimuli/bw_bc_bl/Living_Things/Animals/lynx_0.jpg,Animals,0,lynx,0,78,78,50,402.406311401,nV_V,2,402.411148174,403.648915274,1,2,1.68388514733,405.353353116,2,0,0.871966233826,5,7.5,32,bw,99.7827169143,2019_may_16_1608,001 ,256,20,5,aingere,Experiment_EEG_version,20,
Nonliving_Things,../experiment_stimuli/bw_bc_bl/Nonliving_Things/Furniture/bookcase_11.jpg,Furniture,0,bookcase,0,79,79,8,407.958385274,nV_V,1,407.96332732,409.19096249,0,2,0.481274144957,409.692791604,2,0,0.681704293122,5,6.0,32,bw,99.7827169143,2019_may_16_1608,001 ,256,20,5,aingere,Experiment_EEG_version,20,
Nonliving_Things,../experiment_stimuli/bw_bc_bl/Nonliving_Things/Vehicles/tractor_0.jpg,Vehicles,0,tractor,0,80,80,86,412.107447744,nV_V,1,412.113763909,413.350009355,0,2,0.681718108943,414.052275173,2,0,0.591508949758,5,7.5,32,bw,99.7827169143,2019_may_16_1608,001 ,256,20,5,aingere,Experiment_EEG_version,20,
Nonliving_Things,../experiment_stimuli/bw_bc_bl/Nonliving_Things/Tools/axe_4.jpg,Tools,0,axe,0,81,81,3,416.376687312,V_nV,2,416.383031173,417.619284877,1,2,0.54140420875,418.181242608,2,0,0.511343594058,5,7.0,32,bw,99.7827169143,2019_may_16_1608,001 ,256,20,5,aingere,Experiment_EEG_version,20,
Nonliving_Things,../experiment_stimuli/bw_bc_bl/Nonliving_Things/Furniture/table_13.jpg,Furniture,0,table,0,82,82,81,420.425484662,V_nV,2,420.430305924,421.65806572,1,2,0.922247856157,422.601037415,2,0,0.70174514933,5,7.0,32,bw,99.7827169143,2019_may_16_1608,001 ,256,20,5,aingere,Experiment_EEG_version,20,
Living_Things,../experiment_stimuli/bw_bc_bl/Living_Things/Animals/tiger_6.jpg,Animals,0,tiger,0,83,83,84,425.04552815,nV_V,2,425.050302191,426.288144245,1,2,0.852090635221,427.160777368,2,0,0.511332714465,5,6.5,32,bw,99.7827169143,2019_may_16_1608,001 ,256,20,5,aingere,Experiment_EEG_version,20,
Living_Things,../experiment_stimuli/bw_bc_bl/Living_Things/Animals/cow_24.jpg,Animals,0,cow,0,84,84,20,429.404997761,nV_V,2,429.409781598,430.637585864,1,2,0.661670065252,431.31981285,2,0,0.561288108351,5,8.0,32,bw,99.7827169143,2019_may_16_1608,001 ,256,20,5,aingere,Experiment_EEG_version,20,
Living_Things,../experiment_stimuli/bw_bc_bl/Living_Things/Animals/armadillo_16.jpg,Animals,0,armadillo,0,85,85,1,433.61415007,V_nV,1,433.619008733,434.846736733,0,2,0.401119119953,435.268410311,2,0,1.15272576944,5,6.0,32,bw,99.7827169143,2019_may_16_1608,001 ,256,20,5,aingere,Experiment_EEG_version,20,
Living_Things,../experiment_stimuli/bw_bc_bl/Living_Things/Animals/tapir_3.jpg,Animals,0,tapir,0,86,86,82,438.154026879,nV_V,2,438.158839757,439.396624399,1,2,0.381060524029,439.798241952,2,0,0.671686001006,5,6.5,32,bw,99.7827169143,2019_may_16_1608,001 ,256,20,5,aingere,Experiment_EEG_version,20,
Nonliving_Things,../experiment_stimuli/bw_bc_bl/Nonliving_Things/Furniture/lamp_15.jpg,Furniture,0,lamp,0,87,87,46,442.202823665,V_nV,2,442.210774081,443.435407595,1,2,0.661665542517,444.117636155,2,0,0.571499499376,5,6.0,32,bw,99.7827169143,2019_may_16_1608,001 ,256,20,5,aingere,Experiment_EEG_version,20,
Nonliving_Things,../experiment_stimuli/bw_bc_bl/Nonliving_Things/Tools/hammer_7.jpg,Tools,0,hammer,0,88,88,37,446.421996548,V_nV,2,446.426788675,447.654601001,1,2,1.19284932257,448.868002796,2,0,0.631630830118,5,6.5,32,bw,99.7827169143,2019_may_16_1608,001 ,256,20,5,aingere,Experiment_EEG_version,20,
Living_Things,../experiment_stimuli/bw_bc_bl/Living_Things/Birds/rooster_14.jpg,Birds,0,rooster,0,89,89,70,451.232455858,V_nV,1,451.238844331,452.475066167,0,2,1.57364660234,454.069264321,2,0,0.491290411097,5,6.5,32,bw,99.7827169143,2019_may_16_1608,001 ,256,20,5,aingere,Experiment_EEG_version,20,
Living_Things,../experiment_stimuli/bw_bc_bl/Living_Things/Marine_creatures/sperm-whale_4.jpg,Marine_creatures,0,sperm-whale,0,90,90,80,456.293502858,nV_V,2,456.298268575,457.536059378,1,2,2.27516545379,459.831779473,2,0,0.531374528888,5,6.0,32,bw,99.7827169143,2019_may_16_1608,001 ,256,20,5,aingere,Experiment_EEG_version,20,
Living_Things,../experiment_stimuli/bw_bc_bl/Living_Things/Insects/butterfly_26.jpg,Insects,0,butterfly,0,91,91,10,462.096081184,nV_V,2,462.101933424,463.328653765,1,2,1.17277444468,464.521982656,3,0,0.761884836596,5,8.0,32,bw,99.7827169143,2019_may_16_1608,001 ,256,20,5,aingere,Experiment_EEG_version,20,
Living_Things,../experiment_stimuli/bw_bc_bl/Living_Things/Birds/pelican_6.jpg,Birds,0,pelican,0,92,92,60,467.016769856,V_nV,1,467.021716619,468.259384044,0,2,0.801969507127,469.081896926,3,0,0.511329823872,5,6.0,32,bw,99.7827169143,2019_may_16_1608,001 ,256,20,5,aingere,Experiment_EEG_version,20,
Nonliving_Things,../experiment_stimuli/bw_bc_bl/Nonliving_Things/Furniture/armchair_26.jpg,Furniture,0,armchair,0,93,93,2,471.326136627,nV_V,1,471.330874435,472.558716795,0,2,1.25294856366,473.832230123,2,0,0.401099921204,5,6.0,32,bw,99.7827169143,2019_may_16_1608,001 ,256,20,5,aingere,Experiment_EEG_version,20,
Living_Things,../experiment_stimuli/bw_bc_bl/Living_Things/Marine_creatures/crab_8.jpg,Marine_creatures,0,crab,0,94,94,21,475.976292492,nV_V,2,475.982849906,477.208836359,1,2,0.681715217768,477.911104065,3,0,0.571501348983,5,7.5,32,bw,99.7827169143,2019_may_16_1608,001 ,256,20,5,aingere,Experiment_EEG_version,20,
Nonliving_Things,../experiment_stimuli/bw_bc_bl/Nonliving_Things/Buildings/factory_24.jpg,Buildings,0,factory,0,95,95,28,480.215489333,nV_V,1,480.220245536,481.448068042,0,2,0.992384990561,482.460988892,2,0,0.571468372014,5,6.0,32,bw,99.7827169143,2019_may_16_1608,001 ,256,20,5,aingere,Experiment_EEG_version,20,
