category,probe_path,subcategory,fixation_duration,label,trials.thisRepN,trials.thisTrialN,trials.thisN,trials.thisIndex,image_onset_time,response_window,correctAns,probe_onset,discrim_resptime,response.corr,response.keys,response.rt,visible_resptime,visible.keys,visible.corr,visible.rt,probeFrames,jitter2,n_square,experiment_color,frameRate,date,session,image_size,premask_dur,probeFrames,participant,expName,postmask_dur,
Nonliving_Things,../experiment_stimuli/bw_bc_bl/Nonliving_Things/Furniture/chair_13.jpg,Furniture,0,chair,0,0,0,15,3.72011553438,nV_V,1,3.7428507125,5.00280891999,1,1,0.832040072419,5.86567274656,1,1,0.361003927537,5,6.5,32,bw,99.7835588914,2019_may_16_1711,008,256,20,5,aingere,Experiment_EEG_version,20,
Nonliving_Things,../experiment_stimuli/bw_bc_bl/Nonliving_Things/Kitchen_Uten/frying-pan_19.jpg,Kitchen_Uten,0,frying-pan,0,1,1,31,7.95932914957,nV_V,1,7.96429547702,9.25204669219,1,1,0.59152867517,9.86412971211,2,0,0.310904122773,5,6.0,32,bw,99.7835588914,2019_may_16_1711,008,256,20,5,aingere,Experiment_EEG_version,20,
Living_Things,../experiment_stimuli/bw_bc_bl/Living_Things/Birds/seagull_18.jpg,Birds,0,seagull,0,2,2,74,11.9079140886,V_nV,1,11.9129178701,13.1906020644,1,1,0.691741503077,13.9028995435,1,1,0.411112157395,5,6.5,32,bw,99.7835588914,2019_may_16_1711,008,256,20,5,aingere,Experiment_EEG_version,20,
Living_Things,../experiment_stimuli/bw_bc_bl/Living_Things/Birds/partridge_16.jpg,Birds,0,partridge,0,3,3,59,16.0469086766,V_nV,1,16.0523729142,17.3396233509,1,1,0.771919610561,18.1320711784,1,1,0.371028021094,5,6.0,32,bw,99.7835588914,2019_may_16_1711,008,256,20,5,aingere,Experiment_EEG_version,20,
Nonliving_Things,../experiment_stimuli/bw_bc_bl/Nonliving_Things/Furniture/couch_20.jpg,Furniture,0,couch,0,4,4,19,20.236020058,nV_V,1,20.2408161699,21.5487725883,1,1,0.661678414908,22.2310209714,2,0,0.852087124134,5,6.0,32,bw,99.7835588914,2019_may_16_1711,008,256,20,5,aingere,Experiment_EEG_version,20,
Living_Things,../experiment_stimuli/bw_bc_bl/Living_Things/Animals/armadillo_18.jpg,Animals,0,armadillo,0,5,5,1,24.8159669811,V_nV,1,24.8208236485,26.1187039294,1,1,1.07256063935,27.2118082595,2,0,1.38323012239,5,7.0,32,bw,99.7835588914,2019_may_16_1711,008,256,20,5,aingere,Experiment_EEG_version,20,
Living_Things,../experiment_stimuli/bw_bc_bl/Living_Things/Insects/butterfly_11.jpg,Insects,0,butterfly,0,6,6,10,30.327947,nV_V,2,30.332889993,31.6206697981,1,2,0.691725484445,32.3329243344,3,0,0.361002822407,5,7.0,32,bw,99.7835588914,2019_may_16_1711,008,256,20,5,aingere,Experiment_EEG_version,20,
Living_Things,../experiment_stimuli/bw_bc_bl/Living_Things/Animals/cow_21.jpg,Animals,0,cow,0,7,7,20,34.4268511583,V_nV,1,34.4328566737,35.6995244353,1,1,0.73181610927,36.45189598,1,1,0.411135811126,5,6.0,32,bw,99.7835588914,2019_may_16_1711,008,256,20,5,aingere,Experiment_EEG_version,20,
Nonliving_Things,../experiment_stimuli/bw_bc_bl/Nonliving_Things/Furniture/bedside-table_18.jpg,Furniture,0,bedside-table,0,8,8,6,38.5959198343,V_nV,2,38.6007922948,39.8786081825,1,2,0.481286505819,40.3804523036,2,0,0.421148848138,5,6.0,32,bw,99.7835588914,2019_may_16_1711,008,256,20,5,aingere,Experiment_EEG_version,20,
Nonliving_Things,../experiment_stimuli/bw_bc_bl/Nonliving_Things/Furniture/table_22.jpg,Furniture,0,table,0,9,9,81,42.5344798191,V_nV,2,42.5393059344,43.8071519649,1,2,0.681710635312,44.5094270877,3,0,0.340974789462,5,6.5,32,bw,99.7835588914,2019_may_16_1711,008,256,20,5,aingere,Experiment_EEG_version,20,
Nonliving_Things,../experiment_stimuli/bw_bc_bl/Nonliving_Things/Kitchen_Uten/coking-pot_10.jpg,Kitchen_Uten,0,coking-pot,0,10,10,18,46.5832818943,nV_V,1,46.5882634846,47.835903455,1,1,0.962319973973,48.8187647434,2,0,1.04248691211,5,6.0,32,bw,99.7835588914,2019_may_16_1711,008,256,20,5,aingere,Experiment_EEG_version,20,
Living_Things,../experiment_stimuli/bw_bc_bl/Living_Things/Animals/cheetah_25.jpg,Animals,0,cheetah,0,11,11,16,51.5941764052,nV_V,2,51.5991335334,52.8367848197,0,1,0.761903411709,53.6192527264,1,1,0.350980071235,5,7.0,32,bw,99.7835588914,2019_may_16_1711,008,256,20,5,aingere,Experiment_EEG_version,20,
Living_Things,../experiment_stimuli/bw_bc_bl/Living_Things/Animals/cat_18.jpg,Animals,0,cat,0,12,12,13,55.7031083447,V_nV,1,55.7079516627,56.9657577693,1,1,1.49348856194,58.4797896912,1,1,0.340957936482,5,6.5,32,bw,99.7835588914,2019_may_16_1711,008,256,20,5,aingere,Experiment_EEG_version,20,
Nonliving_Things,../experiment_stimuli/bw_bc_bl/Nonliving_Things/Kitchen_Uten/pot_25.jpg,Kitchen_Uten,0,pot,0,13,13,66,60.5536499041,nV_V,1,60.5592275796,61.8263131587,1,1,1.92441500339,63.7712885104,3,0,0.371025975677,5,6.0,32,bw,99.7835588914,2019_may_16_1711,008,256,20,5,aingere,Experiment_EEG_version,20,
Nonliving_Things,../experiment_stimuli/bw_bc_bl/Nonliving_Things/Buildings/cathedral_2.jpg,Buildings,0,cathedral,0,14,14,14,65.8752127925,nV_V,1,65.880773337,67.1278416389,1,1,0.89216823387,68.0405721536,3,0,0.350981845637,5,6.0,32,bw,99.7835588914,2019_may_16_1711,008,256,20,5,aingere,Experiment_EEG_version,20,
Nonliving_Things,../experiment_stimuli/bw_bc_bl/Nonliving_Things/Furniture/Chest-of-drawers_16.jpg,Furniture,0,Chest-of-drawers,0,15,15,0,70.1244713767,V_nV,2,70.1299779294,71.357034093,0,1,0.912209187867,72.2898075198,1,1,0.320920336293,5,6.0,32,bw,99.7835588914,2019_may_16_1711,008,256,20,5,aingere,Experiment_EEG_version,20,
Living_Things,../experiment_stimuli/bw_bc_bl/Living_Things/Animals/horse_3.jpg,Animals,0,horse,0,16,16,40,74.3436203992,V_nV,1,74.3485769524,75.5962465951,1,1,0.551424068748,76.1682170843,1,1,0.370872639469,5,6.5,32,bw,99.7835588914,2019_may_16_1711,008,256,20,5,aingere,Experiment_EEG_version,20,
Living_Things,../experiment_stimuli/bw_bc_bl/Living_Things/Marine_creatures/sperm-whale_24.jpg,Marine_creatures,0,sperm-whale,0,17,17,80,78.2721580127,nV_V,2,78.2776648587,79.5448307561,1,2,1.00241302745,80.5677900231,1,1,0.371036152355,5,6.0,32,bw,99.7835588914,2019_may_16_1711,008,256,20,5,aingere,Experiment_EEG_version,20,
Living_Things,../experiment_stimuli/bw_bc_bl/Living_Things/Marine_creatures/narwhal_23.jpg,Marine_creatures,0,narwhal,0,18,18,55,82.671723444,nV_V,2,82.6765710928,83.9544137131,1,2,0.641620897572,84.6165992069,1,1,0.371040686034,5,6.0,32,bw,99.7835588914,2019_may_16_1711,008,256,20,5,aingere,Experiment_EEG_version,20,
Nonliving_Things,../experiment_stimuli/bw_bc_bl/Nonliving_Things/Kitchen_Uten/cup_14.jpg,Kitchen_Uten,0,cup,0,19,19,22,86.7205289702,nV_V,1,86.7253524951,88.0332825681,1,1,0.691732119885,88.7455740927,3,0,0.330943625188,5,6.0,32,bw,99.7835588914,2019_may_16_1711,008,256,20,5,aingere,Experiment_EEG_version,20,
Living_Things,../experiment_stimuli/bw_bc_bl/Living_Things/Birds/goldfinch_11.jpg,Birds,0,goldfinch,0,20,20,33,90.8094257043,V_nV,1,90.8143367241,92.1021400517,1,1,0.992385565536,93.1150628119,2,0,0.501314440859,5,6.0,32,bw,99.7835588914,2019_may_16_1711,008,256,20,5,aingere,Experiment_EEG_version,20,
Living_Things,../experiment_stimuli/bw_bc_bl/Living_Things/Birds/sparrow_24.jpg,Birds,0,sparrow,0,21,21,79,95.3492886865,nV_V,2,95.3541862669,96.63201938,1,2,0.842057872796,97.4945892597,2,0,0.37102626171,5,6.0,32,bw,99.7835588914,2019_may_16_1711,008,256,20,5,aingere,Experiment_EEG_version,20,
Living_Things,../experiment_stimuli/bw_bc_bl/Living_Things/Animals/rhino_4.jpg,Animals,0,rhino,0,22,22,68,99.5985218575,V_nV,1,99.6049975128,100.871190811,1,1,0.801970646367,101.693705701,2,0,0.310897938441,5,6.0,32,bw,99.7835588914,2019_may_16_1711,008,256,20,5,aingere,Experiment_EEG_version,20,
Living_Things,../experiment_stimuli/bw_bc_bl/Living_Things/Marine_creatures/crab_21.jpg,Marine_creatures,0,crab,0,23,23,21,103.737519126,nV_V,2,103.74255876,105.000168092,1,2,0.701749731903,105.722463793,2,0,0.340982274502,5,6.0,32,bw,99.7835588914,2019_may_16_1711,008,256,20,5,aingere,Experiment_EEG_version,20,
Living_Things,../experiment_stimuli/bw_bc_bl/Living_Things/Birds/pigeon_9.jpg,Birds,0,pigeon,0,24,24,63,107.796346362,V_nV,1,107.801353659,109.048962596,1,1,0.761896058335,109.831436055,2,0,0.421149735339,5,7.5,32,bw,99.7835588914,2019_may_16_1711,008,256,20,5,aingere,Experiment_EEG_version,20,
Nonliving_Things,../experiment_stimuli/bw_bc_bl/Nonliving_Things/Tools/hammer_21.jpg,Tools,0,hammer,0,25,25,37,111.985447462,nV_V,1,111.992056927,113.228054557,0,2,1.44336302415,114.691979008,1,1,0.431154114893,5,6.5,32,bw,99.7835588914,2019_may_16_1711,008,256,20,5,aingere,Experiment_EEG_version,20,
Living_Things,../experiment_stimuli/bw_bc_bl/Living_Things/Animals/hippopotamus_25.jpg,Animals,0,hippopotamus,0,26,26,39,116.856035313,nV_V,2,116.860846627,118.108660836,1,2,0.601536674774,118.740765817,1,1,0.340963139432,5,7.0,32,bw,99.7835588914,2019_may_16_1711,008,256,20,5,aingere,Experiment_EEG_version,20,
Nonliving_Things,../experiment_stimuli/bw_bc_bl/Nonliving_Things/Buildings/castle_26.jpg,Buildings,0,castle,0,27,27,12,120.814641819,nV_V,1,120.819621289,122.087306502,0,2,1.46341013943,123.571274682,1,1,0.381067102775,5,6.0,32,bw,99.7835588914,2019_may_16_1711,008,256,20,5,aingere,Experiment_EEG_version,20,
Nonliving_Things,../experiment_stimuli/bw_bc_bl/Nonliving_Things/Kitchen_Uten/teapot_18.jpg,Kitchen_Uten,0,teapot,0,28,28,83,125.685258771,nV_V,1,125.690138464,126.967926055,1,1,0.551430504769,127.539901976,3,0,0.340961530455,5,6.0,32,bw,99.7835588914,2019_may_16_1711,008,256,20,5,aingere,Experiment_EEG_version,20,
Nonliving_Things,../experiment_stimuli/bw_bc_bl/Nonliving_Things/Furniture/bookcase_5.jpg,Furniture,0,bookcase,0,29,29,8,129.61376746,nV_V,1,129.620307671,130.876413956,1,1,0.641627739649,131.538587235,2,0,0.340962049202,5,6.0,32,bw,99.7835588914,2019_may_16_1711,008,256,20,5,aingere,Experiment_EEG_version,20,
Nonliving_Things,../experiment_stimuli/bw_bc_bl/Nonliving_Things/Buildings/church_5.jpg,Buildings,0,church,0,30,30,17,133.612453986,nV_V,1,133.617338544,134.865084358,1,1,0.54142281739,135.42705543,1,1,0.330934463535,5,6.5,32,bw,99.7835588914,2019_may_16_1711,008,256,20,5,aingere,Experiment_EEG_version,20,
Living_Things,../experiment_stimuli/bw_bc_bl/Living_Things/Animals/giraffe_12.jpg,Animals,0,giraffe,0,31,31,32,137.4909112,nV_V,2,137.496773146,138.773579822,1,2,1.47343478177,140.267568953,1,1,0.340967113269,5,6.0,32,bw,99.7835588914,2019_may_16_1711,008,256,20,5,aingere,Experiment_EEG_version,20,
Living_Things,../experiment_stimuli/bw_bc_bl/Living_Things/Birds/hen_24.jpg,Birds,0,hen,0,32,32,38,142.341441673,V_nV,1,142.346303415,143.634150802,1,1,0.631610931712,144.286304049,1,1,0.39106841071,5,6.0,32,bw,99.7835588914,2019_may_16_1711,008,256,20,5,aingere,Experiment_EEG_version,20,
Nonliving_Things,../experiment_stimuli/bw_bc_bl/Nonliving_Things/Vehicles/ship_0.jpg,Vehicles,0,ship,0,33,33,76,146.410280626,V_nV,2,146.415091832,147.733054494,1,2,0.50131090323,148.2549199,3,0,0.340960470261,5,6.0,32,bw,99.7835588914,2019_may_16_1711,008,256,20,5,aingere,Experiment_EEG_version,20,
Nonliving_Things,../experiment_stimuli/bw_bc_bl/Nonliving_Things/Kitchen_Uten/saucepan_16.jpg,Kitchen_Uten,0,saucepan,0,34,34,71,150.328793496,nV_V,1,150.33356304,151.631536779,1,1,0.872122352012,152.524198821,3,0,0.491299971356,5,6.0,32,bw,99.7835588914,2019_may_16_1711,008,256,20,5,aingere,Experiment_EEG_version,20,
Nonliving_Things,../experiment_stimuli/bw_bc_bl/Nonliving_Things/Tools/axe_15.jpg,Tools,0,axe,0,35,35,3,154.748407945,nV_V,1,154.754350424,156.031093627,1,1,0.872130332864,156.923761445,1,1,0.391072113533,5,6.5,32,bw,99.7835588914,2019_may_16_1711,008,256,20,5,aingere,Experiment_EEG_version,20,
Living_Things,../experiment_stimuli/bw_bc_bl/Living_Things/Animals/tapir_5.jpg,Animals,0,tapir,0,36,36,82,159.047751059,V_nV,1,159.05284602,160.360507146,1,1,1.45338425669,161.834434391,1,1,0.431157088373,5,6.0,32,bw,99.7835588914,2019_may_16_1711,008,256,20,5,aingere,Experiment_EEG_version,20,
Living_Things,../experiment_stimuli/bw_bc_bl/Living_Things/Animals/lynx_5.jpg,Animals,0,lynx,0,37,37,50,163.998520251,nV_V,2,164.003491451,165.321288183,1,2,0.852074150462,166.193917941,1,1,0.401096293353,5,7.0,32,bw,99.7835588914,2019_may_16_1711,008,256,20,5,aingere,Experiment_EEG_version,20,
Nonliving_Things,../experiment_stimuli/bw_bc_bl/Nonliving_Things/Furniture/sofa_16.jpg,Furniture,0,sofa,0,38,38,78,168.327922642,V_nV,2,168.332864312,169.670741997,1,2,1.33311770076,171.024409949,3,0,0.401090812171,5,6.0,32,bw,99.7835588914,2019_may_16_1711,008,256,20,5,aingere,Experiment_EEG_version,20,
Nonliving_Things,../experiment_stimuli/bw_bc_bl/Nonliving_Things/Furniture/armchair_13.jpg,Furniture,0,armchair,0,39,39,2,173.158427834,nV_V,1,173.165163287,174.481198683,1,1,0.81198656268,175.313729794,3,0,0.48126093857,5,6.0,32,bw,99.7835588914,2019_may_16_1711,008,256,20,5,aingere,Experiment_EEG_version,20,
Nonliving_Things,../experiment_stimuli/bw_bc_bl/Nonliving_Things/Musical_Inst/piano__0.jpg,Musical_Inst,0,piano,0,40,40,62,177.527949993,nV_V,1,177.53288508,178.830653532,1,1,0.952295884141,179.803501682,3,0,0.381047140341,5,6.0,32,bw,99.7835588914,2019_may_16_1711,008,256,20,5,aingere,Experiment_EEG_version,20,
Living_Things,../experiment_stimuli/bw_bc_bl/Living_Things/Animals/zebra_25.jpg,Animals,0,zebra,0,41,41,95,181.917466267,V_nV,1,181.922325198,183.19013377,1,1,1.01243589132,184.223111694,2,0,0.431160136941,5,6.0,32,bw,99.7835588914,2019_may_16_1711,008,256,20,5,aingere,Experiment_EEG_version,20,
Nonliving_Things,../experiment_stimuli/bw_bc_bl/Nonliving_Things/Furniture/filling-cabinet_10.jpg,Furniture,0,filling-cabinet,0,42,42,29,186.387201322,V_nV,2,186.392014734,187.649824352,1,2,0.581506183255,188.251879789,3,0,0.3710427162,5,7.0,32,bw,99.7835588914,2019_may_16_1711,008,256,20,5,aingere,Experiment_EEG_version,20,
Nonliving_Things,../experiment_stimuli/bw_bc_bl/Nonliving_Things/Musical_Inst/guitar_0.jpg,Musical_Inst,0,guitar,0,43,43,36,190.355800327,nV_V,1,190.360660115,191.588394017,1,1,0.711776949116,192.320724946,1,1,0.431163106929,5,6.0,32,bw,99.7835588914,2019_may_16_1711,008,256,20,5,aingere,Experiment_EEG_version,20,
Nonliving_Things,../experiment_stimuli/bw_bc_bl/Nonliving_Things/Buildings/factory_4.jpg,Buildings,0,factory,0,44,44,28,194.484782423,V_nV,2,194.489744484,195.737407653,1,2,1.01243107184,196.770397483,1,1,0.481264543603,5,7.0,32,bw,99.7835588914,2019_may_16_1711,008,256,20,5,aingere,Experiment_EEG_version,20,
Living_Things,../experiment_stimuli/bw_bc_bl/Living_Things/Birds/rooster_26.jpg,Birds,0,rooster,0,45,45,70,198.984568747,V_nV,1,198.990805304,200.257232862,1,1,0.942278678063,201.220060769,1,1,0.340969793499,5,6.5,32,bw,99.7835588914,2019_may_16_1711,008,256,20,5,aingere,Experiment_EEG_version,20,
Nonliving_Things,../experiment_stimuli/bw_bc_bl/Nonliving_Things/Furniture/lectern_15.jpg,Furniture,0,lectern,0,46,46,47,203.293933301,nV_V,1,203.299839051,204.586642731,1,1,0.751859536627,205.359053635,3,0,0.340962534305,5,6.0,32,bw,99.7835588914,2019_may_16_1711,008,256,20,5,aingere,Experiment_EEG_version,20,
Living_Things,../experiment_stimuli/bw_bc_bl/Living_Things/Animals/elephant_16.jpg,Animals,0,elephant,0,47,47,27,207.43293008,nV_V,2,207.438879852,208.705599793,1,2,1.03232626454,209.75848941,2,0,0.401096034097,5,6.0,32,bw,99.7835588914,2019_may_16_1711,008,256,20,5,aingere,Experiment_EEG_version,20,
Living_Things,../experiment_stimuli/bw_bc_bl/Living_Things/Birds/hummingbird_23.jpg,Birds,0,hummingbird,0,48,48,42,211.892626714,V_nV,1,211.897600519,213.155276876,0,2,0.691728916834,213.867561363,1,1,0.401103541255,5,6.0,32,bw,99.7835588914,2019_may_16_1711,008,256,20,5,aingere,Experiment_EEG_version,20,
Nonliving_Things,../experiment_stimuli/bw_bc_bl/Nonliving_Things/Vehicles/car_26.jpg,Vehicles,0,car,0,49,49,11,216.001556037,nV_V,1,216.007575165,217.284246829,1,1,0.852089364314,218.156878854,3,0,0.361012491398,5,6.5,32,bw,99.7835588914,2019_may_16_1711,008,256,20,5,aingere,Experiment_EEG_version,20,
Living_Things,../experiment_stimuli/bw_bc_bl/Living_Things/Birds/penguin_11.jpg,Birds,0,penguin,0,50,50,61,220.250795257,nV_V,2,220.25799065,221.503417667,1,2,1.10262621625,222.62659345,1,1,0.340961831273,5,6.0,32,bw,99.7835588914,2019_may_16_1711,008,256,20,5,aingere,Experiment_EEG_version,20,
Nonliving_Things,../experiment_stimuli/bw_bc_bl/Nonliving_Things/Furniture/wardrobe_26.jpg,Furniture,0,wardrobe,0,51,51,93,224.700470068,V_nV,2,224.70636483,225.983157868,1,2,0.721795910853,226.725517274,3,0,0.401091225678,5,6.0,32,bw,99.7835588914,2019_may_16_1711,008,256,20,5,aingere,Experiment_EEG_version,20,
Living_Things,../experiment_stimuli/bw_bc_bl/Living_Things/Marine_creatures/lobster_5.jpg,Marine_creatures,0,lobster,0,52,52,49,228.859502509,V_nV,1,228.864556948,230.112137261,1,1,1.26297623164,231.395646928,2,0,0.411263700575,5,7.5,32,bw,99.7835588914,2019_may_16_1711,008,256,20,5,aingere,Experiment_EEG_version,20,
Living_Things,../experiment_stimuli/bw_bc_bl/Living_Things/Marine_creatures/manatee_23.jpg,Marine_creatures,0,manatee,0,53,53,52,233.539681361,nV_V,2,233.544543137,234.782282975,1,2,0.812013855902,235.614864923,1,1,0.401088169077,5,6.0,32,bw,99.7835588914,2019_may_16_1711,008,256,20,5,aingere,Experiment_EEG_version,20,
Nonliving_Things,../experiment_stimuli/bw_bc_bl/Nonliving_Things/Buildings/mill_19.jpg,Buildings,0,mill,0,54,54,53,237.748829734,nV_V,1,237.753809493,239.011484628,0,2,0.892165516037,239.924187369,1,1,0.451208297396,5,6.5,32,bw,99.7835588914,2019_may_16_1711,008,256,20,5,aingere,Experiment_EEG_version,20,
Nonliving_Things,../experiment_stimuli/bw_bc_bl/Nonliving_Things/Musical_Inst/violin_19.jpg,Musical_Inst,0,violin,0,55,55,92,242.108304818,V_nV,2,242.1133306,243.38098031,1,2,1.13269719156,244.534263406,1,1,0.390919717145,5,6.0,32,bw,99.7835588914,2019_may_16_1711,008,256,20,5,aingere,Experiment_EEG_version,20,
Living_Things,../experiment_stimuli/bw_bc_bl/Living_Things/Birds/magpie_10.jpg,Birds,0,magpie,0,56,56,51,246.658202461,V_nV,1,246.663165661,247.940889513,0,2,0.962316860911,248.923765951,1,1,0.391076105996,5,7.5,32,bw,99.7835588914,2019_may_16_1711,008,256,20,5,aingere,Experiment_EEG_version,20,
Nonliving_Things,../experiment_stimuli/bw_bc_bl/Nonliving_Things/Vehicles/motorbike_3.jpg,Vehicles,0,motorbike,0,57,57,54,251.047734476,V_nV,2,251.055026011,252.360496518,1,2,0.852084695594,253.233141212,3,0,0.441175617976,5,6.0,32,bw,99.7835588914,2019_may_16_1711,008,256,20,5,aingere,Experiment_EEG_version,20,
Nonliving_Things,../experiment_stimuli/bw_bc_bl/Nonliving_Things/Furniture/bed_15.jpg,Furniture,0,bed,0,58,58,5,255.407222418,V_nV,2,255.412030781,256.68990798,1,2,1.23290884309,257.943353807,2,0,0.621593597927,5,8.0,32,bw,99.7835588914,2019_may_16_1711,008,256,20,5,aingere,Experiment_EEG_version,20,
Nonliving_Things,../experiment_stimuli/bw_bc_bl/Nonliving_Things/Buildings/house_12.jpg,Buildings,0,house,0,59,59,41,260.29784776,V_nV,2,260.302766633,261.570517635,1,2,0.771902761189,262.362976884,2,0,0.420982895652,5,6.0,32,bw,99.7835588914,2019_may_16_1711,008,256,20,5,aingere,Experiment_EEG_version,20,
Living_Things,../experiment_stimuli/bw_bc_bl/Living_Things/Birds/ostrich_15.jpg,Birds,0,ostrich,0,60,60,56,264.517017053,V_nV,1,264.521987794,265.779667459,1,1,0.982373641338,266.782600855,1,1,0.681700996473,5,6.0,32,bw,99.7835588914,2019_may_16_1711,008,256,20,5,aingere,Experiment_EEG_version,20,
Living_Things,../experiment_stimuli/bw_bc_bl/Living_Things/Insects/ladybird_17.jpg,Insects,0,ladybird,0,61,61,45,269.19719912,nV_V,2,269.202040366,270.469870345,1,2,0.882234981516,271.372659306,2,0,0.411110924324,5,6.0,32,bw,99.7835588914,2019_may_16_1711,008,256,20,5,aingere,Experiment_EEG_version,20,
Living_Things,../experiment_stimuli/bw_bc_bl/Living_Things/Insects/dragonfly_13.jpg,Insects,0,dragonfly,0,62,62,24,273.516579673,V_nV,1,273.521491186,274.789250345,1,1,0.962314518867,275.772131592,1,1,0.350984563353,5,7.5,32,bw,99.7835588914,2019_may_16_1711,008,256,20,5,aingere,Experiment_EEG_version,20,
Nonliving_Things,../experiment_stimuli/bw_bc_bl/Nonliving_Things/Kitchen_Uten/small-saucepan_23.jpg,Kitchen_Uten,0,small-saucepan,0,63,63,77,277.856009955,nV_V,1,277.862082488,279.128695356,1,1,0.711773343734,279.861003887,3,0,0.761896942044,5,7.0,32,bw,99.7835588914,2019_may_16_1711,008,256,20,5,aingere,Experiment_EEG_version,20,
Living_Things,../experiment_stimuli/bw_bc_bl/Living_Things/Birds/owl_18.jpg,Birds,0,owl,0,64,64,57,282.355804041,nV_V,2,282.360529635,283.598405745,0,1,0.551441335585,284.170416763,1,1,0.471243228531,5,6.5,32,bw,99.7835588914,2019_may_16_1711,008,256,20,5,aingere,Experiment_EEG_version,20,
Living_Things,../experiment_stimuli/bw_bc_bl/Living_Things/Birds/kiwi_26.jpg,Birds,0,kiwi,0,65,65,44,286.374532122,V_nV,1,286.379378474,287.63718208,1,1,0.741840680013,288.409600293,1,1,0.37103047932,5,6.0,32,bw,99.7835588914,2019_may_16_1711,008,256,20,5,aingere,Experiment_EEG_version,20,
Nonliving_Things,../experiment_stimuli/bw_bc_bl/Nonliving_Things/Vehicles/train_1.jpg,Vehicles,0,train,0,66,66,87,290.513530665,nV_V,1,290.51840211,291.796219095,1,1,0.701751239249,292.518536627,1,1,0.461228078813,5,6.5,32,bw,99.7835588914,2019_may_16_1711,008,256,20,5,aingere,Experiment_EEG_version,20,
Nonliving_Things,../experiment_stimuli/bw_bc_bl/Nonliving_Things/Furniture/rocking-chair_3.jpg,Furniture,0,rocking-chair,0,67,67,69,294.712665504,nV_V,1,294.717910587,296.015399287,1,1,0.902187458822,296.938122565,3,0,0.401092597633,5,6.0,32,bw,99.7835588914,2019_may_16_1711,008,256,20,5,aingere,Experiment_EEG_version,20,
Nonliving_Things,../experiment_stimuli/bw_bc_bl/Nonliving_Things/Musical_Inst/tuba_18.jpg,Musical_Inst,0,tuba,0,68,68,89,299.072136472,V_nV,2,299.077011703,300.344806449,1,2,0.62158022949,300.986948891,3,0,0.431153693469,5,6.0,32,bw,99.7835588914,2019_may_16_1711,008,256,20,5,aingere,Experiment_EEG_version,20,
Nonliving_Things,../experiment_stimuli/bw_bc_bl/Nonliving_Things/Musical_Inst/drum_12.jpg,Musical_Inst,0,drum,0,69,69,25,303.151007188,V_nV,2,303.155842904,304.393615768,1,2,0.511340718367,304.925495162,1,1,0.371028734953,5,6.0,32,bw,99.7835588914,2019_may_16_1711,008,256,20,5,aingere,Experiment_EEG_version,20,
Nonliving_Things,../experiment_stimuli/bw_bc_bl/Nonliving_Things/Vehicles/bus_15.jpg,Vehicles,0,bus,0,70,70,9,307.02943397,nV_V,1,307.034211199,308.302106548,1,1,0.751973099192,309.07462889,3,0,0.561448609689,5,7.0,32,bw,99.7835588914,2019_may_16_1711,008,256,20,5,aingere,Experiment_EEG_version,20,
Nonliving_Things,../experiment_stimuli/bw_bc_bl/Nonliving_Things/Kitchen_Uten/fondue_7.jpg,Kitchen_Uten,0,fondue,0,71,71,30,311.368874657,nV_V,1,311.37360159,312.621494226,1,1,1.37321623578,314.0152734,2,0,0.371023145039,5,6.0,32,bw,99.7835588914,2019_may_16_1711,008,256,20,5,aingere,Experiment_EEG_version,20,
Nonliving_Things,../experiment_stimuli/bw_bc_bl/Nonliving_Things/Musical_Inst/saxophone_16.jpg,Musical_Inst,0,saxophone,0,72,72,72,316.119197693,V_nV,2,316.124082454,317.351779206,1,2,1.58367836801,318.95602293,1,1,0.381048929761,5,6.0,32,bw,99.7835588914,2019_may_16_1711,008,256,20,5,aingere,Experiment_EEG_version,20,
Living_Things,../experiment_stimuli/bw_bc_bl/Living_Things/Birds/raven_2.jpg,Birds,0,raven,0,73,73,67,321.069953242,nV_V,2,321.074780718,322.332610945,1,2,0.711780336453,323.064927464,1,1,0.310897028656,5,6.0,32,bw,99.7835588914,2019_may_16_1711,008,256,20,5,aingere,Experiment_EEG_version,20,
Living_Things,../experiment_stimuli/bw_bc_bl/Living_Things/Marine_creatures/killer-whale_0.jpg,Marine_creatures,0,killer-whale,0,74,74,43,325.10873531,nV_V,2,325.115007721,326.391462711,1,2,0.811987134512,327.223958164,1,1,0.320922640851,5,6.5,32,bw,99.7835588914,2019_may_16_1711,008,256,20,5,aingere,Experiment_EEG_version,20,
Living_Things,../experiment_stimuli/bw_bc_bl/Living_Things/Birds/barn-owl_5.jpg,Birds,0,barn-owl,0,75,75,4,329.277795863,V_nV,1,329.282543366,330.59055325,1,1,0.641619314789,331.252721447,2,0,0.290860977257,5,6.0,32,bw,99.7835588914,2019_may_16_1711,008,256,20,5,aingere,Experiment_EEG_version,20,
Living_Things,../experiment_stimuli/bw_bc_bl/Living_Things/Animals/tiger_8.jpg,Animals,0,tiger,0,76,76,84,333.276496084,nV_V,2,333.281345789,334.579235866,1,2,0.731825793744,335.331601813,2,0,0.371032242663,5,7.5,32,bw,99.7835588914,2019_may_16_1711,008,256,20,5,aingere,Experiment_EEG_version,20,
Living_Things,../experiment_stimuli/bw_bc_bl/Living_Things/Birds/toucan_5.jpg,Birds,0,toucan,0,77,77,85,337.435532543,nV_V,2,337.44030767,338.728245277,1,2,0.771746315761,339.520568501,1,1,0.511176810949,5,6.5,32,bw,99.7835588914,2019_may_16_1711,008,256,20,5,aingere,Experiment_EEG_version,20,
Living_Things,../experiment_stimuli/bw_bc_bl/Living_Things/Marine_creatures/dolphin_14.jpg,Marine_creatures,0,dolphin,0,78,78,23,341.764943144,V_nV,1,341.769723237,343.087720873,1,1,1.97450983129,345.08280433,1,1,0.401094868314,5,8.0,32,bw,99.7835588914,2019_may_16_1711,008,256,20,5,aingere,Experiment_EEG_version,20,
Nonliving_Things,../experiment_stimuli/bw_bc_bl/Nonliving_Things/Buildings/granary_6.jpg,Buildings,0,granary,0,79,79,35,347.216791618,V_nV,2,347.221623158,348.559616372,1,2,0.64162729599,349.221809009,3,0,2.08476786874,5,6.5,32,bw,99.7835588914,2019_may_16_1711,008,256,20,5,aingere,Experiment_EEG_version,20,
Living_Things,../experiment_stimuli/bw_bc_bl/Living_Things/Animals/lioness_12.jpg,Animals,0,lioness,0,80,80,48,353.049479938,V_nV,1,353.054279125,354.362235848,1,1,1.16275668226,355.545529909,1,1,0.511325387401,5,6.5,32,bw,99.7835588914,2019_may_16_1711,008,256,20,5,aingere,Experiment_EEG_version,20,
Nonliving_Things,../experiment_stimuli/bw_bc_bl/Nonliving_Things/Vehicles/tractor_8.jpg,Vehicles,0,tractor,0,81,81,86,357.789776979,V_nV,2,357.794573625,359.132602849,1,2,0.922246336937,360.075413816,3,0,0.421147818095,5,7.0,32,bw,99.7835588914,2019_may_16_1711,008,256,20,5,aingere,Experiment_EEG_version,20,
Living_Things,../experiment_stimuli/bw_bc_bl/Living_Things/Insects/scorpion_19.jpg,Insects,0,scorpion,0,82,82,73,362.229428122,V_nV,1,362.234403269,363.552215659,1,1,0.711774524534,364.28452737,1,1,0.401091977605,5,6.0,32,bw,99.7835588914,2019_may_16_1711,008,256,20,5,aingere,Experiment_EEG_version,20,
Living_Things,../experiment_stimuli/bw_bc_bl/Living_Things/Birds/pelican_22.jpg,Birds,0,pelican,0,83,83,60,366.418539669,V_nV,1,366.423425896,367.771381914,1,1,0.631605018163,368.423520898,2,0,0.350987762795,5,6.0,32,bw,99.7835588914,2019_may_16_1711,008,256,20,5,aingere,Experiment_EEG_version,20,
Living_Things,../experiment_stimuli/bw_bc_bl/Living_Things/Marine_creatures/pomfret_10.jpg,Marine_creatures,0,pomfret,0,84,84,65,370.507421877,nV_V,2,370.512137625,371.840226357,1,2,1.09260349115,372.953378944,2,0,0.371025926899,5,6.0,32,bw,99.7835588914,2019_may_16_1711,008,256,20,5,aingere,Experiment_EEG_version,20,
Nonliving_Things,../experiment_stimuli/bw_bc_bl/Nonliving_Things/Furniture/lamp_5.jpg,Furniture,0,lamp,0,85,85,46,375.067350323,nV_V,1,375.072059523,376.390120293,1,1,0.73182834615,377.14249613,3,0,0.381049734773,5,6.0,32,bw,99.7835588914,2019_may_16_1711,008,256,20,5,aingere,Experiment_EEG_version,20,
Living_Things,../experiment_stimuli/bw_bc_bl/Living_Things/Animals/turtle_7.jpg,Animals,0,turtle,0,86,86,90,379.256441667,V_nV,1,379.261225197,380.569203198,1,1,0.701884695911,381.291650234,2,0,0.421155423159,5,7.0,32,bw,99.7835588914,2019_may_16_1711,008,256,20,5,aingere,Experiment_EEG_version,20,
Living_Things,../experiment_stimuli/bw_bc_bl/Living_Things/Marine_creatures/whale_8.jpg,Marine_creatures,0,whale,0,87,87,94,383.455591386,V_nV,1,383.461878323,384.748284373,1,1,0.541409539524,385.310259908,2,0,0.320917775971,5,6.5,32,bw,99.7835588914,2019_may_16_1711,008,256,20,5,aingere,Experiment_EEG_version,20,
Living_Things,../experiment_stimuli/bw_bc_bl/Living_Things/Marine_creatures/shark_1.jpg,Marine_creatures,0,shark,0,88,88,75,387.364077155,nV_V,2,387.368890981,388.646760409,1,2,1.22288318176,389.890180534,3,0,1.41329378204,5,6.5,32,bw,99.7835588914,2019_may_16_1711,008,256,20,5,aingere,Experiment_EEG_version,20,
Nonliving_Things,../experiment_stimuli/bw_bc_bl/Nonliving_Things/Buildings/palace_16.jpg,Buildings,0,palace,0,89,89,58,393.046426216,V_nV,2,393.051332664,394.309071027,1,2,0.621579368715,394.951189451,1,1,0.371025246335,5,7.0,32,bw,99.7835588914,2019_may_16_1711,008,256,20,5,aingere,Experiment_EEG_version,20,
Living_Things,../experiment_stimuli/bw_bc_bl/Living_Things/Birds/goose_26.jpg,Birds,0,goose,0,90,90,34,397.055136199,nV_V,2,397.059956254,398.32780727,1,2,1.15273129917,399.501078813,2,0,0.401089383522,5,6.0,32,bw,99.7835588914,2019_may_16_1711,008,256,20,5,aingere,Experiment_EEG_version,20,
Nonliving_Things,../experiment_stimuli/bw_bc_bl/Nonliving_Things/Vehicles/van_25.jpg,Vehicles,0,van,0,91,91,91,401.645120486,V_nV,2,401.649970642,402.907763223,1,2,1.19282396208,404.121122421,3,0,0.371025566128,5,6.5,32,bw,99.7835588914,2019_may_16_1711,008,256,20,5,aingere,Experiment_EEG_version,20,
Nonliving_Things,../experiment_stimuli/bw_bc_bl/Nonliving_Things/Musical_Inst/trumpet_23.jpg,Musical_Inst,0,trumpet,0,92,92,88,406.22509262,nV_V,1,406.230011008,407.468442456,1,1,0.561444519321,408.04967376,1,1,0.431154742488,5,6.0,32,bw,99.7835588914,2019_may_16_1711,008,256,20,5,aingere,Experiment_EEG_version,20,
Nonliving_Things,../experiment_stimuli/bw_bc_bl/Nonliving_Things/Vehicles/plane_19.jpg,Vehicles,0,plane,0,93,93,64,410.213740688,nV_V,1,410.218542958,411.466367305,0,2,0.631438862649,412.128402838,1,1,0.330939756706,5,6.0,32,bw,99.7835588914,2019_may_16_1711,008,256,20,5,aingere,Experiment_EEG_version,20,
Nonliving_Things,../experiment_stimuli/bw_bc_bl/Nonliving_Things/Vehicles/boat_22.jpg,Vehicles,0,boat,0,94,94,7,414.192393787,nV_V,1,414.197068863,415.475085413,1,1,0.862096627359,416.357765125,3,0,0.922079587472,5,7.5,32,bw,99.7835588914,2019_may_16_1711,008,256,20,5,aingere,Experiment_EEG_version,20,
Living_Things,../experiment_stimuli/bw_bc_bl/Living_Things/Birds/duck_12.jpg,Birds,0,duck,0,95,95,26,419.012871585,nV_V,2,419.017628468,420.255472958,0,1,0.661657677963,420.937701518,1,1,0.340962816146,5,6.0,32,bw,99.7835588914,2019_may_16_1711,008,256,20,5,aingere,Experiment_EEG_version,20,
