category,probe_path,subcategory,fixation_duration,label,trials.thisRepN,trials.thisTrialN,trials.thisN,trials.thisIndex,image_onset_time,response_window,correctAns,probe_onset,discrim_resptime,response.corr,response.keys,response.rt,visible_resptime,visible.keys,visible.corr,visible.rt,probeFrames,jitter2,n_square,experiment_color,frameRate,date,session,image_size,premask_dur,probeFrames,participant,expName,postmask_dur,
Living_Things,../experiment_stimuli/bw_bc_bl/Living_Things/Marine_creatures/killer-whale_23.jpg,Marine_creatures,0,killer-whale,0,0,0,43,3.75054471882,V_nV,1,3.79539659794,5.06330771954,1,1,0.6716854244,5.76585101197,3,0,0.421133352327,5,8.0,32,bw,99.7815207377,2019_jun_28_1544,005,256,20,5,mattin,Experiment_EEG_version,20,
Living_Things,../experiment_stimuli/bw_bc_bl/Living_Things/Animals/lynx_14.jpg,Animals,0,lynx,0,1,1,50,7.9196276674,V_nV,1,7.94669700437,9.18228435668,0,2,1.13253873354,10.3353893885,1,1,0.290848259348,5,6.0,32,bw,99.7815207377,2019_jun_28_1544,005,256,20,5,mattin,Experiment_EEG_version,20,
Nonliving_Things,../experiment_stimuli/bw_bc_bl/Nonliving_Things/Furniture/couch_21.jpg,Furniture,0,couch,0,2,2,19,12.3592895253,V_nV,2,12.3784799322,13.6319643441,0,1,1.27300901816,14.9255473593,2,0,0.200670382357,5,6.0,32,bw,99.7815207377,2019_jun_28_1544,005,256,20,5,mattin,Experiment_EEG_version,20,
Nonliving_Things,../experiment_stimuli/bw_bc_bl/Nonliving_Things/Kitchen_Uten/small-saucepan_5.jpg,Kitchen_Uten,0,small-saucepan,0,3,3,77,16.8590834105,V_nV,2,16.8944473239,18.1417862868,1,2,1.31309968175,19.4754525598,2,0,0.320912503987,5,6.0,32,bw,99.7815207377,2019_jun_28_1544,005,256,20,5,mattin,Experiment_EEG_version,20,
Living_Things,../experiment_stimuli/bw_bc_bl/Living_Things/Marine_creatures/dolphin_25.jpg,Marine_creatures,0,dolphin,0,4,4,23,21.529257492,nV_V,2,21.5557806884,22.7919236212,0,1,0.81201177428,23.6244927688,2,0,0.290848947596,5,6.0,32,bw,99.7815207377,2019_jun_28_1544,005,256,20,5,mattin,Experiment_EEG_version,20,
Living_Things,../experiment_stimuli/bw_bc_bl/Living_Things/Birds/ostrich_20.jpg,Birds,0,ostrich,0,5,5,56,25.6482359712,nV_V,2,25.6849926477,26.9108793149,0,1,0.962338110548,27.8937871257,2,0,0.230709442752,5,6.5,32,bw,99.7815207377,2019_jun_28_1544,005,256,20,5,mattin,Experiment_EEG_version,20,
Nonliving_Things,../experiment_stimuli/bw_bc_bl/Nonliving_Things/Kitchen_Uten/fondue_20.jpg,Kitchen_Uten,0,fondue,0,6,6,30,29.8573917187,V_nV,2,29.8789239235,31.1000132512,1,2,1.16275048454,32.2833019699,1,1,0.922069581109,5,6.0,32,bw,99.7815207377,2019_jun_28_1544,005,256,20,5,mattin,Experiment_EEG_version,20,
Living_Things,../experiment_stimuli/bw_bc_bl/Living_Things/Birds/rooster_6.jpg,Birds,0,rooster,0,7,7,70,34.9384546611,nV_V,2,34.9672025854,36.2011086927,0,1,1.64380532468,37.865468248,2,0,0.210670184344,5,6.0,32,bw,99.7815207377,2019_jun_28_1544,005,256,20,5,mattin,Experiment_EEG_version,20,
Living_Things,../experiment_stimuli/bw_bc_bl/Living_Things/Marine_creatures/sperm-whale_19.jpg,Marine_creatures,0,sperm-whale,0,8,8,80,39.8090583717,nV_V,2,39.8341243016,41.0616887215,0,1,1.71395463136,42.7962029666,2,0,0.170582769206,5,6.0,32,bw,99.7815207377,2019_jun_28_1544,005,256,20,5,mattin,Experiment_EEG_version,20,
Living_Things,../experiment_stimuli/bw_bc_bl/Living_Things/Birds/goose_9.jpg,Birds,0,goose,0,9,9,34,44.6997086336,V_nV,1,44.7145576285,45.9423309857,0,2,0.43115799292,46.3940503933,1,1,0.110517689027,5,6.5,32,bw,99.7815207377,2019_jun_28_1544,005,256,20,5,mattin,Experiment_EEG_version,20,
Living_Things,../experiment_stimuli/bw_bc_bl/Living_Things/Animals/cheetah_22.jpg,Animals,0,cheetah,0,10,10,16,48.2374094091,V_nV,1,48.2712766017,49.5201493979,0,2,1.74401974492,51.2847051063,2,0,0.200647897436,5,6.0,32,bw,99.7815207377,2019_jun_28_1544,005,256,20,5,mattin,Experiment_EEG_version,20,
Nonliving_Things,../experiment_stimuli/bw_bc_bl/Nonliving_Things/Furniture/armchair_17.jpg,Furniture,0,armchair,0,11,11,2,53.2182557888,nV_V,1,53.245822756,54.4809093844,1,1,0.892186664976,55.393672306,2,0,0.070367567474,5,6.5,32,bw,99.7815207377,2019_jun_28_1544,005,256,20,5,mattin,Experiment_EEG_version,20,
Living_Things,../experiment_stimuli/bw_bc_bl/Living_Things/Animals/elephant_7.jpg,Animals,0,elephant,0,12,12,27,57.1969266775,V_nV,1,57.2078536579,58.4295053479,0,2,0.320907109533,58.7709982889,1,1,0.170637945528,5,6.5,32,bw,99.7815207377,2019_jun_28_1544,005,256,20,5,mattin,Experiment_EEG_version,20,
Nonliving_Things,../experiment_stimuli/bw_bc_bl/Nonliving_Things/Vehicles/van_15.jpg,Vehicles,0,van,0,13,13,91,60.6745012155,nV_V,1,60.6876739913,61.9271207309,1,1,1.0224461566,62.9701686928,2,0,0.150591307203,5,8.0,32,bw,99.7815207377,2019_jun_28_1544,005,256,20,5,mattin,Experiment_EEG_version,20,
Living_Things,../experiment_stimuli/bw_bc_bl/Living_Things/Marine_creatures/lobster_3.jpg,Marine_creatures,0,lobster,0,14,14,49,64.8535930075,V_nV,1,64.8857919925,66.1162423701,1,1,0.381048689131,66.5178423572,1,1,0.150546894292,5,6.0,32,bw,99.7815207377,2019_jun_28_1544,005,256,20,5,mattin,Experiment_EEG_version,20,
Living_Things,../experiment_stimuli/bw_bc_bl/Living_Things/Marine_creatures/narwhal_7.jpg,Marine_creatures,0,narwhal,0,15,15,55,68.4013214312,nV_V,2,68.4176922514,69.6840152135,1,2,1.19281744352,70.9074266556,2,0,0.621565774782,5,6.0,32,bw,99.7815207377,2019_jun_28_1544,005,256,20,5,mattin,Experiment_EEG_version,20,
Living_Things,../experiment_stimuli/bw_bc_bl/Living_Things/Birds/toucan_26.jpg,Birds,0,toucan,0,16,16,85,73.2618990727,nV_V,2,73.289458254,74.5445983888,1,2,0.62160149985,75.1867484763,2,0,0.781918973313,5,6.0,32,bw,99.7815207377,2019_jun_28_1544,005,256,20,5,mattin,Experiment_EEG_version,20,
Nonliving_Things,../experiment_stimuli/bw_bc_bl/Nonliving_Things/Vehicles/motorbike_13.jpg,Vehicles,0,motorbike,0,17,17,54,77.701567378,V_nV,2,77.730658618,78.9742647379,0,1,1.10261858162,80.0974410196,3,0,0.230711036711,5,6.5,32,bw,99.7815207377,2019_jun_28_1544,005,256,20,5,mattin,Experiment_EEG_version,20,
Nonliving_Things,../experiment_stimuli/bw_bc_bl/Nonliving_Things/Furniture/table_16.jpg,Furniture,0,table,0,18,18,81,82.0610600032,nV_V,1,82.0973894552,83.3237129222,0,2,0.551422193414,83.8957125562,1,1,0.26078539039,5,6.5,32,bw,99.7815207377,2019_jun_28_1544,005,256,20,5,mattin,Experiment_EEG_version,20,
Nonliving_Things,../experiment_stimuli/bw_bc_bl/Nonliving_Things/Furniture/bed_16.jpg,Furniture,0,bed,0,19,19,5,85.8893943223,V_nV,2,85.919141672,87.1620801635,0,1,1.47343774501,88.6560799583,2,0,0.290870289318,5,6.0,32,bw,99.7815207377,2019_jun_28_1544,005,256,20,5,mattin,Experiment_EEG_version,20,
Living_Things,../experiment_stimuli/bw_bc_bl/Living_Things/Marine_creatures/pomfret_9.jpg,Marine_creatures,0,pomfret,0,20,20,65,90.679833687,V_nV,1,90.6941311426,91.9324571987,1,1,0.421133626951,92.374145838,2,0,0.170584581327,5,6.0,32,bw,99.7815207377,2019_jun_28_1544,005,256,20,5,mattin,Experiment_EEG_version,20,
Living_Things,../experiment_stimuli/bw_bc_bl/Living_Things/Birds/raven_19.jpg,Birds,0,raven,0,21,21,67,94.2776672642,V_nV,1,94.2963314808,95.5202899245,0,2,0.300878569135,95.8417134155,1,1,0.250748434453,5,6.0,32,bw,99.7815207377,2019_jun_28_1544,005,256,20,5,mattin,Experiment_EEG_version,20,
Nonliving_Things,../experiment_stimuli/bw_bc_bl/Nonliving_Things/Furniture/wardrobe_2.jpg,Furniture,0,wardrobe,0,22,22,93,97.8253897778,nV_V,1,97.8444279417,99.0980640516,1,1,0.68172547454,99.8003490531,2,0,0.130521673243,5,6.0,32,bw,99.7815207377,2019_jun_28_1544,005,256,20,5,mattin,Experiment_EEG_version,20,
Living_Things,../experiment_stimuli/bw_bc_bl/Living_Things/Birds/magpie_18.jpg,Birds,0,magpie,0,23,23,51,101.663750151,nV_V,2,101.686821482,102.926396878,0,1,0.581486953539,103.528449378,2,0,0.0904183821985,5,6.0,32,bw,99.7815207377,2019_jun_28_1544,005,256,20,5,mattin,Experiment_EEG_version,20,
Living_Things,../experiment_stimuli/bw_bc_bl/Living_Things/Birds/hummingbird_8.jpg,Birds,0,hummingbird,0,24,24,42,105.351785522,V_nV,1,105.372156503,106.604406838,0,2,0.701746432343,107.326742531,2,0,0.260772052687,5,8.0,32,bw,99.7815207377,2019_jun_28_1544,005,256,20,5,mattin,Experiment_EEG_version,20,
Living_Things,../experiment_stimuli/bw_bc_bl/Living_Things/Marine_creatures/shark_3.jpg,Marine_creatures,0,shark,0,25,25,75,109.320419304,nV_V,2,109.337453388,110.563033329,0,1,0.541404522955,111.125008087,2,0,0.170631283545,5,6.5,32,bw,99.7815207377,2019_jun_28_1544,005,256,20,5,mattin,Experiment_EEG_version,20,
Nonliving_Things,../experiment_stimuli/bw_bc_bl/Nonliving_Things/Vehicles/tractor_2.jpg,Vehicles,0,tractor,0,26,26,86,113.02849146,nV_V,1,113.045819323,114.271111685,1,1,1.77408038441,116.075766184,2,0,0.862099627266,5,7.5,32,bw,99.7815207377,2019_jun_28_1544,005,256,20,5,mattin,Experiment_EEG_version,20,
Nonliving_Things,../experiment_stimuli/bw_bc_bl/Nonliving_Things/Vehicles/boat_16.jpg,Vehicles,0,boat,0,27,27,7,118.670779653,V_nV,2,118.697538557,119.923412841,1,2,0.571464053821,120.515428647,1,1,0.250604691682,5,6.0,32,bw,99.7815207377,2019_jun_28_1544,005,256,20,5,mattin,Experiment_EEG_version,20,
Living_Things,../experiment_stimuli/bw_bc_bl/Living_Things/Birds/seagull_21.jpg,Birds,0,seagull,0,28,28,74,122.499120464,nV_V,2,122.532869508,123.791836279,0,1,1.5936898404,125.406077098,2,0,0.150545018143,5,6.5,32,bw,99.7815207377,2019_jun_28_1544,005,256,20,5,mattin,Experiment_EEG_version,20,
Living_Things,../experiment_stimuli/bw_bc_bl/Living_Things/Insects/dragonfly_9.jpg,Insects,0,dragonfly,0,29,29,24,127.289543344,V_nV,1,127.325254389,128.572248018,0,2,0.611556126853,129.204392664,1,1,0.210691210697,5,6.5,32,bw,99.7815207377,2019_jun_28_1544,005,256,20,5,mattin,Experiment_EEG_version,20,
Nonliving_Things,../experiment_stimuli/bw_bc_bl/Nonliving_Things/Vehicles/car_0.jpg,Vehicles,0,car,0,30,30,11,131.147961972,V_nV,2,131.176962521,132.440687459,1,2,0.972343969508,133.433567903,3,0,0.300714371493,5,6.5,32,bw,99.7815207377,2019_jun_28_1544,005,256,20,5,mattin,Experiment_EEG_version,20,
Living_Things,../experiment_stimuli/bw_bc_bl/Living_Things/Animals/rhino_26.jpg,Animals,0,rhino,0,31,31,68,135.467355757,V_nV,1,135.482617905,136.719987318,0,2,1.12268661766,137.863246718,2,0,0.190647155279,5,6.5,32,bw,99.7815207377,2019_jun_28_1544,005,256,20,5,mattin,Experiment_EEG_version,20,
Living_Things,../experiment_stimuli/bw_bc_bl/Living_Things/Animals/lioness_10.jpg,Animals,0,lioness,0,32,32,48,139.78677614,nV_V,2,139.80835619,141.029372334,0,1,0.601526768063,141.651471073,2,0,0.18065278884,5,8.0,32,bw,99.7815207377,2019_jun_28_1544,005,256,20,5,mattin,Experiment_EEG_version,20,
Nonliving_Things,../experiment_stimuli/bw_bc_bl/Nonliving_Things/Musical_Inst/piano__15.jpg,Musical_Inst,0,piano,0,33,33,62,143.564992531,nV_V,1,143.587655882,144.80759841,0,2,0.481267766561,145.309444707,1,1,0.260780229,5,6.5,32,bw,99.7815207377,2019_jun_28_1544,005,256,20,5,mattin,Experiment_EEG_version,20,
Living_Things,../experiment_stimuli/bw_bc_bl/Living_Things/Birds/kiwi_25.jpg,Birds,0,kiwi,0,34,34,44,147.303131466,nV_V,2,147.313304466,148.54574219,0,1,0.731820387533,149.298116827,2,0,0.090417517582,5,6.0,32,bw,99.7815207377,2019_jun_28_1544,005,256,20,5,mattin,Experiment_EEG_version,20,
Nonliving_Things,../experiment_stimuli/bw_bc_bl/Nonliving_Things/Furniture/bookcase_20.jpg,Furniture,0,bookcase,0,35,35,8,151.121444588,V_nV,2,151.145865796,152.374076746,1,2,0.531218196382,152.925861004,2,0,0.461217790376,5,7.5,32,bw,99.7815207377,2019_jun_28_1544,005,256,20,5,mattin,Experiment_EEG_version,20,
Living_Things,../experiment_stimuli/bw_bc_bl/Living_Things/Birds/penguin_12.jpg,Birds,0,penguin,0,36,36,61,155.12014954,nV_V,2,155.135219506,156.362771362,0,1,1.18279016402,157.566122106,2,0,0.230565297999,5,7.0,32,bw,99.7815207377,2019_jun_28_1544,005,256,20,5,mattin,Experiment_EEG_version,20,
Living_Things,../experiment_stimuli/bw_bc_bl/Living_Things/Animals/cat_21.jpg,Animals,0,cat,0,37,37,13,159.529750837,V_nV,1,159.562188568,160.782388916,0,2,0.290857939981,161.093804462,1,1,0.401086466387,5,6.0,32,bw,99.7815207377,2019_jun_28_1544,005,256,20,5,mattin,Experiment_EEG_version,20,
Nonliving_Things,../experiment_stimuli/bw_bc_bl/Nonliving_Things/Kitchen_Uten/pot_0.jpg,Kitchen_Uten,0,pot,0,38,38,66,163.227813056,V_nV,2,163.256270077,164.51050685,0,1,0.761877677287,165.292942314,2,0,0.44103345077,5,6.5,32,bw,99.7815207377,2019_jun_28_1544,005,256,20,5,mattin,Experiment_EEG_version,20,
Living_Things,../experiment_stimuli/bw_bc_bl/Living_Things/Birds/goldfinch_3.jpg,Birds,0,goldfinch,0,39,39,33,167.467048563,nV_V,2,167.48475732,168.729693741,0,1,0.541396906599,169.291655645,3,0,0.300862403819,5,6.0,32,bw,99.7815207377,2019_jun_28_1544,005,256,20,5,mattin,Experiment_EEG_version,20,
Living_Things,../experiment_stimuli/bw_bc_bl/Living_Things/Insects/ladybird_12.jpg,Insects,0,ladybird,0,40,40,45,171.325444243,nV_V,2,171.34544878,172.568058411,1,2,0.140520915273,172.729129948,1,1,0.220713561634,5,7.0,32,bw,99.7815207377,2019_jun_28_1544,005,256,20,5,mattin,Experiment_EEG_version,20,
Nonliving_Things,../experiment_stimuli/bw_bc_bl/Nonliving_Things/Buildings/castle_11.jpg,Buildings,0,castle,0,41,41,12,174.682755411,V_nV,2,174.707859529,175.9454188,1,2,0.250757050933,176.216718487,2,0,0.481261992594,5,6.0,32,bw,99.7815207377,2019_jun_28_1544,005,256,20,5,mattin,Experiment_EEG_version,20,
Nonliving_Things,../experiment_stimuli/bw_bc_bl/Nonliving_Things/Buildings/house_11.jpg,Buildings,0,house,0,42,42,41,178.430917133,V_nV,2,178.457719522,179.683546175,1,2,0.481288048555,180.18541348,1,1,0.180659927777,5,6.0,32,bw,99.7815207377,2019_jun_28_1544,005,256,20,5,mattin,Experiment_EEG_version,20,
Nonliving_Things,../experiment_stimuli/bw_bc_bl/Nonliving_Things/Furniture/bedside-table_4.jpg,Furniture,0,bedside-table,0,43,43,6,182.098906227,nV_V,1,182.13310833,183.37157823,1,1,0.701747165294,184.093881265,2,0,0.120544987381,5,6.0,32,bw,99.7815207377,2019_jun_28_1544,005,256,20,5,mattin,Experiment_EEG_version,20,
Living_Things,../experiment_stimuli/bw_bc_bl/Living_Things/Birds/hen_20.jpg,Birds,0,hen,0,44,44,38,185.947286252,nV_V,2,185.979712156,187.199912399,0,1,0.43117943278,187.651664678,2,0,0.120527678984,5,7.5,32,bw,99.7815207377,2019_jun_28_1544,005,256,20,5,mattin,Experiment_EEG_version,20,
Nonliving_Things,../experiment_stimuli/bw_bc_bl/Nonliving_Things/Tools/hammer_20.jpg,Tools,0,hammer,0,45,45,37,189.505023745,V_nV,2,189.541469511,190.767691464,1,2,1.33312780096,192.121355477,1,1,0.731830737204,5,7.5,32,bw,99.7815207377,2019_jun_28_1544,005,256,20,5,mattin,Experiment_EEG_version,20,
Living_Things,../experiment_stimuli/bw_bc_bl/Living_Things/Birds/pelican_8.jpg,Birds,0,pelican,0,46,46,60,194.586101161,V_nV,1,194.604239312,195.838724559,0,2,1.00240585348,196.861699992,2,0,0.190634504776,5,6.0,32,bw,99.7815207377,2019_jun_28_1544,005,256,20,5,mattin,Experiment_EEG_version,20,
Nonliving_Things,../experiment_stimuli/bw_bc_bl/Nonliving_Things/Furniture/Chest-of-drawers_18.jpg,Furniture,0,Chest-of-drawers,0,47,47,0,198.785233659,nV_V,1,198.811504113,200.037874974,0,2,0.962320280145,201.030764299,2,0,0.320913545438,5,6.0,32,bw,99.7815207377,2019_jun_28_1544,005,256,20,5,mattin,Experiment_EEG_version,20,
Nonliving_Things,../experiment_stimuli/bw_bc_bl/Nonliving_Things/Vehicles/train_19.jpg,Vehicles,0,train,0,48,48,87,203.084605524,nV_V,1,203.111514193,204.33723899,0,2,1.64381797868,206.001628545,1,1,0.521371422452,5,6.0,32,bw,99.7815207377,2019_jun_28_1544,005,256,20,5,mattin,Experiment_EEG_version,20,
Living_Things,../experiment_stimuli/bw_bc_bl/Living_Things/Animals/giraffe_20.jpg,Animals,0,giraffe,0,49,49,32,208.255862505,V_nV,1,208.275758814,209.528537635,1,1,0.511340334662,210.060451234,3,0,0.701743609272,5,6.0,32,bw,99.7815207377,2019_jun_28_1544,005,256,20,5,mattin,Experiment_EEG_version,20,
Nonliving_Things,../experiment_stimuli/bw_bc_bl/Nonliving_Things/Musical_Inst/violin_13.jpg,Musical_Inst,0,violin,0,50,50,92,212.495091982,V_nV,2,212.524972721,213.757751717,0,1,0.701748586609,214.480064003,2,0,0.140587621252,5,6.0,32,bw,99.7815207377,2019_jun_28_1544,005,256,20,5,mattin,Experiment_EEG_version,20,
Nonliving_Things,../experiment_stimuli/bw_bc_bl/Nonliving_Things/Furniture/filling-cabinet_5.jpg,Furniture,0,filling-cabinet,0,51,51,29,216.353494753,V_nV,2,216.376242602,217.596104056,0,1,0.57146473031,218.188162272,2,0,0.150608927244,5,6.0,32,bw,99.7815207377,2019_jun_28_1544,005,256,20,5,mattin,Experiment_EEG_version,20,
Living_Things,../experiment_stimuli/bw_bc_bl/Living_Things/Animals/cow_17.jpg,Animals,0,cow,0,52,52,20,220.071594425,V_nV,1,220.098002871,221.324222831,0,2,1.10264745343,222.447443477,1,1,0.190697169746,5,7.5,32,bw,99.7815207377,2019_jun_28_1544,005,256,20,5,mattin,Experiment_EEG_version,20,
Living_Things,../experiment_stimuli/bw_bc_bl/Living_Things/Animals/turtle_6.jpg,Animals,0,turtle,0,53,53,90,224.370961719,nV_V,2,224.390363709,225.643634661,1,2,1.41329762014,227.07748455,2,0,0.45121813484,5,8.0,32,bw,99.7815207377,2019_jun_28_1544,005,256,20,5,mattin,Experiment_EEG_version,20,
Living_Things,../experiment_stimuli/bw_bc_bl/Living_Things/Animals/tapir_14.jpg,Animals,0,tapir,0,54,54,82,229.261603646,V_nV,1,229.294704272,230.534284728,1,1,0.631592159742,231.186443215,3,0,0.491306579905,5,6.0,32,bw,99.7815207377,2019_jun_28_1544,005,256,20,5,mattin,Experiment_EEG_version,20,
Nonliving_Things,../experiment_stimuli/bw_bc_bl/Nonliving_Things/Buildings/factory_25.jpg,Buildings,0,factory,0,55,55,28,233.41066502,V_nV,2,233.446468106,234.673293338,1,2,0.63160079089,235.325492569,2,0,0.230733386357,5,6.0,32,bw,99.7815207377,2019_jun_28_1544,005,256,20,5,mattin,Experiment_EEG_version,20,
Nonliving_Things,../experiment_stimuli/bw_bc_bl/Nonliving_Things/Kitchen_Uten/frying-pan_11.jpg,Kitchen_Uten,0,frying-pan,0,56,56,31,237.289093783,V_nV,2,237.321275708,238.541715922,0,1,0.41114718141,238.98346976,2,0,0.210667466628,5,6.5,32,bw,99.7815207377,2019_jun_28_1544,005,256,20,5,mattin,Experiment_EEG_version,20,
Nonliving_Things,../experiment_stimuli/bw_bc_bl/Nonliving_Things/Vehicles/bus_16.jpg,Vehicles,0,bus,0,57,57,9,240.927008628,V_nV,2,240.947730876,242.169619172,0,1,0.420975061134,242.611159761,2,0,0.160560362041,5,6.0,32,bw,99.7815207377,2019_jun_28_1544,005,256,20,5,mattin,Experiment_EEG_version,20,
Nonliving_Things,../experiment_stimuli/bw_bc_bl/Nonliving_Things/Musical_Inst/guitar_8.jpg,Musical_Inst,0,guitar,0,58,58,36,244.504801281,nV_V,1,244.517344658,245.737385456,0,2,0.771897697472,246.529841985,1,1,0.210660823621,5,8.0,32,bw,99.7815207377,2019_jun_28_1544,005,256,20,5,mattin,Experiment_EEG_version,20,
Living_Things,../experiment_stimuli/bw_bc_bl/Living_Things/Birds/sparrow_4.jpg,Birds,0,sparrow,0,59,59,79,248.473456909,nV_V,2,248.504636078,249.746121484,1,2,0.781764174346,250.548443802,2,0,0.270823357743,5,6.0,32,bw,99.7815207377,2019_jun_28_1544,005,256,20,5,mattin,Experiment_EEG_version,20,
Nonliving_Things,../experiment_stimuli/bw_bc_bl/Nonliving_Things/Tools/axe_24.jpg,Tools,0,axe,0,60,60,3,252.552322635,nV_V,1,252.563761324,253.784925486,0,2,1.22288136499,255.028358261,2,0,0.772001606529,5,6.0,32,bw,99.7815207377,2019_jun_28_1544,005,256,20,5,mattin,Experiment_EEG_version,20,
Living_Things,../experiment_stimuli/bw_bc_bl/Living_Things/Animals/hippopotamus_6.jpg,Animals,0,hippopotamus,0,61,61,39,257.533176462,V_nV,1,257.557161614,258.785810428,0,2,2.39544176648,261.201816376,1,1,0.290895664948,5,6.5,32,bw,99.7815207377,2019_jun_28_1544,005,256,20,5,mattin,Experiment_EEG_version,20,
Nonliving_Things,../experiment_stimuli/bw_bc_bl/Nonliving_Things/Buildings/mill_3.jpg,Buildings,0,mill,0,62,62,53,263.225565346,nV_V,1,263.249003049,264.488220967,0,2,0.44121434004,264.950002398,1,1,0.651633369154,5,6.5,32,bw,99.7815207377,2019_jun_28_1544,005,256,20,5,mattin,Experiment_EEG_version,20,
Living_Things,../experiment_stimuli/bw_bc_bl/Living_Things/Birds/owl_13.jpg,Birds,0,owl,0,63,63,57,267.334521019,V_nV,1,267.350903381,268.627233183,1,1,3.39762025746,272.045431103,2,0,0.451193920569,5,6.0,32,bw,99.7815207377,2019_jun_28_1544,005,256,20,5,mattin,Experiment_EEG_version,20,
Living_Things,../experiment_stimuli/bw_bc_bl/Living_Things/Insects/scorpion_12.jpg,Insects,0,scorpion,0,64,64,73,274.229539008,V_nV,1,274.253279328,275.512235441,1,1,0.401094172965,275.933918513,2,0,0.29085799621,5,6.0,32,bw,99.7815207377,2019_jun_28_1544,005,256,20,5,mattin,Experiment_EEG_version,20,
Living_Things,../experiment_stimuli/bw_bc_bl/Living_Things/Insects/butterfly_3.jpg,Insects,0,butterfly,0,65,65,10,277.957662659,nV_V,2,277.971751902,279.220312751,1,2,1.24291894294,280.493798297,2,0,0.230711770011,5,6.0,32,bw,99.7815207377,2019_jun_28_1544,005,256,20,5,mattin,Experiment_EEG_version,20,
Living_Things,../experiment_stimuli/bw_bc_bl/Living_Things/Animals/armadillo_25.jpg,Animals,0,armadillo,0,66,66,1,282.457455363,nV_V,2,282.50647401,283.740144552,0,1,0.591503157862,284.352222406,1,1,0.481286792783,5,6.0,32,bw,99.7815207377,2019_jun_28_1544,005,256,20,5,mattin,Experiment_EEG_version,20,
Living_Things,../experiment_stimuli/bw_bc_bl/Living_Things/Birds/partridge_22.jpg,Birds,0,partridge,0,67,67,59,286.566401188,nV_V,2,286.587704996,287.859118009,1,2,0.511327052722,288.391012059,2,0,0.190625279327,5,6.5,32,bw,99.7815207377,2019_jun_28_1544,005,256,20,5,mattin,Experiment_EEG_version,20,
Nonliving_Things,../experiment_stimuli/bw_bc_bl/Nonliving_Things/Kitchen_Uten/teapot_3.jpg,Kitchen_Uten,0,teapot,0,68,68,83,290.314584067,V_nV,2,290.347908573,291.597253775,0,1,0.701753668953,292.31956108,2,0,0.280842536245,5,6.0,32,bw,99.7815207377,2019_jun_28_1544,005,256,20,5,mattin,Experiment_EEG_version,20,
Nonliving_Things,../experiment_stimuli/bw_bc_bl/Nonliving_Things/Vehicles/plane_14.jpg,Vehicles,0,plane,0,69,69,64,294.333317537,nV_V,1,294.357227325,295.605985408,0,2,0.952137246612,296.578689171,1,1,0.220693159383,5,6.0,32,bw,99.7815207377,2019_jun_28_1544,005,256,20,5,mattin,Experiment_EEG_version,20,
Nonliving_Things,../experiment_stimuli/bw_bc_bl/Nonliving_Things/Furniture/chair_20.jpg,Furniture,0,chair,0,70,70,15,298.532452215,nV_V,1,298.546305408,299.825186581,0,2,1.10264826554,300.948391532,2,0,0.170575987431,5,8.0,32,bw,99.7815207377,2019_jun_28_1544,005,256,20,5,mattin,Experiment_EEG_version,20,
Nonliving_Things,../experiment_stimuli/bw_bc_bl/Nonliving_Things/Buildings/palace_21.jpg,Buildings,0,palace,0,71,71,58,302.851856771,V_nV,2,302.87894569,304.144588532,0,1,1.12266413681,305.287804869,2,0,0.130545469932,5,6.5,32,bw,99.7815207377,2019_jun_28_1544,005,256,20,5,mattin,Experiment_EEG_version,20,
Nonliving_Things,../experiment_stimuli/bw_bc_bl/Nonliving_Things/Kitchen_Uten/saucepan_12.jpg,Kitchen_Uten,0,saucepan,0,72,72,71,307.151220173,nV_V,1,307.174285508,308.423903466,0,2,1.35300180945,309.797464889,3,0,0.190649106517,5,6.5,32,bw,99.7815207377,2019_jun_28_1544,005,256,20,5,mattin,Experiment_EEG_version,20,
Nonliving_Things,../experiment_stimuli/bw_bc_bl/Nonliving_Things/Kitchen_Uten/coking-pot_4.jpg,Kitchen_Uten,0,coking-pot,0,73,73,18,311.721171151,V_nV,2,311.755891688,312.983826641,1,2,1.89434408117,314.898739415,1,1,0.511320996564,5,6.5,32,bw,99.7815207377,2019_jun_28_1544,005,256,20,5,mattin,Experiment_EEG_version,20,
Nonliving_Things,../experiment_stimuli/bw_bc_bl/Nonliving_Things/Vehicles/ship_9.jpg,Vehicles,0,ship,0,74,74,76,317.143000463,nV_V,1,317.176878471,318.435710063,1,1,0.461224508472,318.917475719,3,0,0.280825092806,5,6.0,32,bw,99.7815207377,2019_jun_28_1544,005,256,20,5,mattin,Experiment_EEG_version,20,
Nonliving_Things,../experiment_stimuli/bw_bc_bl/Nonliving_Things/Buildings/church_24.jpg,Buildings,0,church,0,75,75,17,320.931229171,V_nV,2,320.957650354,322.183878435,1,2,0.260787676089,322.465214747,3,0,0.431171748554,5,6.0,32,bw,99.7815207377,2019_jun_28_1544,005,256,20,5,mattin,Experiment_EEG_version,20,
Living_Things,../experiment_stimuli/bw_bc_bl/Living_Things/Marine_creatures/manatee_12.jpg,Marine_creatures,0,manatee,0,76,76,52,324.629283871,V_nV,1,324.655196695,325.881915514,0,2,0.260792649933,326.163267372,1,1,0.402040459681,5,7.5,32,bw,99.7815207377,2019_jun_28_1544,005,256,20,5,mattin,Experiment_EEG_version,20,
Nonliving_Things,../experiment_stimuli/bw_bc_bl/Nonliving_Things/Musical_Inst/trumpet_19.jpg,Musical_Inst,0,trumpet,0,77,77,88,328.297268154,nV_V,1,328.309512466,329.549904699,1,1,0.892182033393,330.462659466,3,0,0.220542119932,5,6.0,32,bw,99.7815207377,2019_jun_28_1544,005,256,20,5,mattin,Experiment_EEG_version,20,
Living_Things,../experiment_stimuli/bw_bc_bl/Living_Things/Animals/zebra_26.jpg,Animals,0,zebra,0,78,78,95,332.416241904,V_nV,1,332.446915172,333.678893089,0,2,1.12267196772,334.822137952,1,1,0.320930804592,5,6.0,32,bw,99.7815207377,2019_jun_28_1544,005,256,20,5,mattin,Experiment_EEG_version,20,
Nonliving_Things,../experiment_stimuli/bw_bc_bl/Nonliving_Things/Musical_Inst/tuba_11.jpg,Musical_Inst,0,tuba,0,79,79,89,336.87596511,V_nV,2,336.910059375,338.168680041,1,2,1.58367407229,339.772910587,3,0,0.4712444084,5,6.0,32,bw,99.7815207377,2019_jun_28_1544,005,256,20,5,mattin,Experiment_EEG_version,20,
Nonliving_Things,../experiment_stimuli/bw_bc_bl/Nonliving_Things/Musical_Inst/drum_22.jpg,Musical_Inst,0,drum,0,80,80,25,341.977058769,nV_V,1,342.009835617,343.229695018,1,1,1.35317450296,344.603425221,3,0,0.170653877314,5,7.0,32,bw,99.7815207377,2019_jun_28_1544,005,256,20,5,mattin,Experiment_EEG_version,20,
Nonliving_Things,../experiment_stimuli/bw_bc_bl/Nonliving_Things/Furniture/sofa_25.jpg,Furniture,0,sofa,0,81,81,78,346.506921629,nV_V,1,346.530649047,347.759557727,1,1,0.491294159088,348.271418759,2,0,0.19062253891,5,6.0,32,bw,99.7815207377,2019_jun_28_1544,005,256,20,5,mattin,Experiment_EEG_version,20,
Nonliving_Things,../experiment_stimuli/bw_bc_bl/Nonliving_Things/Kitchen_Uten/cup_1.jpg,Kitchen_Uten,0,cup,0,82,82,22,350.194954477,V_nV,2,350.212411512,351.437576837,1,2,1.17278437293,352.630899956,1,1,0.421129517723,5,7.5,32,bw,99.7815207377,2019_jun_28_1544,005,256,20,5,mattin,Experiment_EEG_version,20,
Nonliving_Things,../experiment_stimuli/bw_bc_bl/Nonliving_Things/Furniture/rocking-chair_26.jpg,Furniture,0,rocking-chair,0,83,83,69,354.784954251,V_nV,2,354.815855257,356.077680422,1,2,0.771906941896,356.870146188,3,0,0.671529324492,5,7.5,32,bw,99.7815207377,2019_jun_28_1544,005,256,20,5,mattin,Experiment_EEG_version,20,
Nonliving_Things,../experiment_stimuli/bw_bc_bl/Nonliving_Things/Buildings/granary_8.jpg,Buildings,0,granary,0,84,84,35,359.274728165,nV_V,1,359.306883218,360.527377443,1,1,0.521355452714,361.06925731,2,0,0.721777551575,5,6.0,32,bw,99.7815207377,2019_jun_28_1544,005,256,20,5,mattin,Experiment_EEG_version,20,
Living_Things,../experiment_stimuli/bw_bc_bl/Living_Things/Birds/duck_9.jpg,Birds,0,duck,0,85,85,26,363.534000791,nV_V,2,363.567884427,364.816706295,0,1,0.671682405518,365.508935713,2,0,0.170592257869,5,6.0,32,bw,99.7815207377,2019_jun_28_1544,005,256,20,5,mattin,Experiment_EEG_version,20,
Nonliving_Things,../experiment_stimuli/bw_bc_bl/Nonliving_Things/Furniture/lectern_10.jpg,Furniture,0,lectern,0,86,86,47,367.412448324,nV_V,1,367.442641748,368.665083237,0,2,0.401094804634,369.086741393,1,1,0.280826077797,5,7.5,32,bw,99.7815207377,2019_jun_28_1544,005,256,20,5,mattin,Experiment_EEG_version,20,
Nonliving_Things,../experiment_stimuli/bw_bc_bl/Nonliving_Things/Furniture/lamp_25.jpg,Furniture,0,lamp,0,87,87,46,371.100477019,V_nV,2,371.119014504,372.37316007,0,1,1.04232984921,373.436080879,2,0,0.260781496065,5,6.0,32,bw,99.7815207377,2019_jun_28_1544,005,256,20,5,mattin,Experiment_EEG_version,20,
Nonliving_Things,../experiment_stimuli/bw_bc_bl/Nonliving_Things/Musical_Inst/saxophone_4.jpg,Musical_Inst,0,saxophone,0,88,88,72,375.429908437,V_nV,2,375.447737738,376.702595236,0,1,0.661682580947,377.384845168,2,0,0.310916615301,5,7.0,32,bw,99.7815207377,2019_jun_28_1544,005,256,20,5,mattin,Experiment_EEG_version,20,
Living_Things,../experiment_stimuli/bw_bc_bl/Living_Things/Animals/horse_15.jpg,Animals,0,horse,0,89,89,40,379.428614708,V_nV,1,379.452078076,380.691272179,0,2,0.912039902876,381.623874109,1,1,0.22071259527,5,6.0,32,bw,99.7815207377,2019_jun_28_1544,005,256,20,5,mattin,Experiment_EEG_version,20,
Living_Things,../experiment_stimuli/bw_bc_bl/Living_Things/Birds/pigeon_22.jpg,Birds,0,pigeon,0,90,90,63,383.577660165,nV_V,2,383.592041777,384.86035268,1,2,2.23510412383,387.116040508,3,0,0.280821340624,5,6.0,32,bw,99.7815207377,2019_jun_28_1544,005,256,20,5,mattin,Experiment_EEG_version,20,
Living_Things,../experiment_stimuli/bw_bc_bl/Living_Things/Marine_creatures/whale_24.jpg,Marine_creatures,0,whale,0,91,91,94,389.139780158,nV_V,2,389.174849808,390.412443973,1,2,0.361009844113,390.794020228,1,1,0.290847439785,5,6.0,32,bw,99.7815207377,2019_jun_28_1544,005,256,20,5,mattin,Experiment_EEG_version,20,
Living_Things,../experiment_stimuli/bw_bc_bl/Living_Things/Animals/tiger_5.jpg,Animals,0,tiger,0,92,92,84,392.827807887,V_nV,1,392.832892321,394.080437466,1,1,0.952295248513,395.053290576,2,0,0.48126118409,5,6.0,32,bw,99.7815207377,2019_jun_28_1544,005,256,20,5,mattin,Experiment_EEG_version,20,
Living_Things,../experiment_stimuli/bw_bc_bl/Living_Things/Birds/barn-owl_13.jpg,Birds,0,barn-owl,0,93,93,4,397.267467373,nV_V,2,397.289258101,398.520097328,0,1,1.6135747697,400.15425782,1,1,0.260780886747,5,6.0,32,bw,99.7815207377,2019_jun_28_1544,005,256,20,5,mattin,Experiment_EEG_version,20,
Living_Things,../experiment_stimuli/bw_bc_bl/Living_Things/Marine_creatures/crab_15.jpg,Marine_creatures,0,crab,0,94,94,21,402.158121838,V_nV,1,402.186750568,403.450855234,0,2,1.49348054477,404.964877724,2,0,0.511353924987,5,6.5,32,bw,99.7815207377,2019_jun_28_1544,005,256,20,5,mattin,Experiment_EEG_version,20,
Nonliving_Things,../experiment_stimuli/bw_bc_bl/Nonliving_Things/Buildings/cathedral_19.jpg,Buildings,0,cathedral,0,95,95,14,407.209109938,V_nV,2,407.225678688,408.471767947,1,2,0.270801297855,408.763160144,1,1,0.240738083376,5,7.5,32,bw,99.7815207377,2019_jun_28_1544,005,256,20,5,mattin,Experiment_EEG_version,20,
