category,probe_path,subcategory,fixation_duration,label,trials.thisRepN,trials.thisTrialN,trials.thisN,trials.thisIndex,image_onset_time,response_window,correctAns,probe_onset,discrim_resptime,response.corr,response.keys,response.rt,visible_resptime,visible.keys,visible.corr,visible.rt,probeFrames,jitter2,n_square,experiment_color,frameRate,date,session,image_size,premask_dur,probeFrames,participant,expName,postmask_dur,
Living_Things,../experiment_stimuli/bw_bc_bl/Living_Things/Marine_creatures/sperm-whale_11.jpg,Marine_creatures,0,sperm-whale,0,0,0,80,3.72933755559,V_nV,1,3.7662796923,5.03205682966,1,1,0.481108437758,5.54402923281,3,0,0.57145975274,5,6.0,32,bw,99.7793200564,2019_jul_12_1640,014,256,20,5,mattin,Experiment_EEG_version,20,
Nonliving_Things,../experiment_stimuli/bw_bc_bl/Nonliving_Things/Buildings/factory_8.jpg,Buildings,0,factory,0,1,1,28,7.84828554653,V_nV,2,7.86885182536,9.10091469344,1,2,0.481288288953,9.60277194949,2,0,0.150544491829,5,7.5,32,bw,99.7793200564,2019_jul_12_1640,014,256,20,5,mattin,Experiment_EEG_version,20,
Living_Things,../experiment_stimuli/bw_bc_bl/Living_Things/Marine_creatures/killer-whale_2.jpg,Marine_creatures,0,killer-whale,0,2,2,43,11.4862068244,nV_V,2,11.4910114342,12.7187886378,1,2,0.741687274072,13.4810339166,2,0,0.120473901508,5,7.0,32,bw,99.7793200564,2019_jul_12_1640,014,256,20,5,mattin,Experiment_EEG_version,20,
Nonliving_Things,../experiment_stimuli/bw_bc_bl/Nonliving_Things/Vehicles/car_10.jpg,Vehicles,0,car,0,3,3,11,15.3345796727,V_nV,2,15.3692120148,16.5972332347,0,1,0.471257520607,17.0890532976,2,0,0.180605466012,5,7.0,32,bw,99.7793200564,2019_jul_12_1640,014,256,20,5,mattin,Experiment_EEG_version,20,
Nonliving_Things,../experiment_stimuli/bw_bc_bl/Nonliving_Things/Vehicles/van_8.jpg,Vehicles,0,van,0,4,4,91,19.0025704696,nV_V,1,19.0307007616,20.2552033232,0,2,1.18281347957,21.4585726534,1,1,0.190480322344,5,6.0,32,bw,99.7793200564,2019_jul_12_1640,014,256,20,5,mattin,Experiment_EEG_version,20,
Living_Things,../experiment_stimuli/bw_bc_bl/Living_Things/Birds/duck_20.jpg,Birds,0,duck,0,5,5,26,23.3821148761,nV_V,2,23.4002560568,24.6347406395,1,2,0.77191027673,25.4272005185,2,0,0.140525471419,5,6.0,32,bw,99.7793200564,2019_jul_12_1640,014,256,20,5,mattin,Experiment_EEG_version,20,
Nonliving_Things,../experiment_stimuli/bw_bc_bl/Nonliving_Things/Furniture/rocking-chair_18.jpg,Furniture,0,rocking-chair,0,6,6,69,27.3006383991,V_nV,2,27.3180962454,28.54324312,0,1,0.791949233972,29.3557482196,1,1,0.902041299734,5,6.0,32,bw,99.7793200564,2019_jul_12_1640,014,256,20,5,mattin,Experiment_EEG_version,20,
Nonliving_Things,../experiment_stimuli/bw_bc_bl/Nonliving_Things/Furniture/table_17.jpg,Furniture,0,table,0,7,7,81,31.9908683179,V_nV,2,32.0059760991,33.2434815927,0,1,0.090422882,33.3544599272,1,1,0.100445537595,5,6.5,32,bw,99.7793200564,2019_jul_12_1640,014,256,20,5,mattin,Experiment_EEG_version,20,
Nonliving_Things,../experiment_stimuli/bw_bc_bl/Nonliving_Things/Furniture/bed_3.jpg,Furniture,0,bed,0,8,8,5,35.1878273962,nV_V,1,35.2057608953,36.4705072353,1,1,3.95869515208,40.4497539336,2,0,0.150603976334,5,6.0,32,bw,99.7793200564,2019_jul_12_1640,014,256,20,5,mattin,Experiment_EEG_version,20,
Living_Things,../experiment_stimuli/bw_bc_bl/Living_Things/Birds/owl_16.jpg,Birds,0,owl,0,9,9,57,42.3333644343,V_nV,1,42.3516780005,43.606049302,0,2,1.35317817191,44.9797831366,2,0,0.331018632278,5,6.5,32,bw,99.7793200564,2019_jul_12_1640,014,256,20,5,mattin,Experiment_EEG_version,20,
Nonliving_Things,../experiment_stimuli/bw_bc_bl/Nonliving_Things/Vehicles/tractor_24.jpg,Vehicles,0,tractor,0,10,10,86,47.0436316491,V_nV,2,47.0607382811,48.3062816057,0,1,0.621580507606,48.948422746,2,0,0.110512444517,5,6.0,32,bw,99.7793200564,2019_jul_12_1640,014,256,20,5,mattin,Experiment_EEG_version,20,
Living_Things,../experiment_stimuli/bw_bc_bl/Living_Things/Animals/cheetah_3.jpg,Animals,0,cheetah,0,11,11,16,50.7917994724,V_nV,1,50.8036807242,52.0343940428,0,2,0.0302953212522,52.0852438575,2,0,0.170589885674,5,6.0,32,bw,99.7793200564,2019_jul_12_1640,014,256,20,5,mattin,Experiment_EEG_version,20,
Nonliving_Things,../experiment_stimuli/bw_bc_bl/Nonliving_Things/Musical_Inst/trumpet_20.jpg,Musical_Inst,0,trumpet,0,12,12,88,53.9887440659,V_nV,2,54.0099264057,55.2313507448,0,1,0.30083249067,55.5527831609,2,0,0.120530848159,5,6.5,32,bw,99.7793200564,2019_jul_12_1640,014,256,20,5,mattin,Experiment_EEG_version,20,
Living_Things,../experiment_stimuli/bw_bc_bl/Living_Things/Birds/toucan_24.jpg,Birds,0,toucan,0,13,13,85,57.4061891893,V_nV,1,57.4255552178,58.6487942822,0,2,0.290859443368,58.9602919815,2,0,0.210681661731,5,6.5,32,bw,99.7793200564,2019_jul_12_1640,014,256,20,5,mattin,Experiment_EEG_version,20,
Living_Things,../experiment_stimuli/bw_bc_bl/Living_Things/Marine_creatures/narwhal_18.jpg,Marine_creatures,0,narwhal,0,14,14,55,60.9038042489,V_nV,1,60.9226343546,62.1464096874,0,2,0.95230305288,63.11928017,2,0,0.18061546213,5,6.0,32,bw,99.7793200564,2019_jul_12_1640,014,256,20,5,mattin,Experiment_EEG_version,20,
Living_Things,../experiment_stimuli/bw_bc_bl/Living_Things/Birds/kiwi_1.jpg,Birds,0,kiwi,0,15,15,44,65.0327897971,nV_V,2,65.0627846029,66.2854226546,0,1,0.541408199817,66.8473877348,1,1,0.150611442514,5,6.5,32,bw,99.7793200564,2019_jul_12_1640,014,256,20,5,mattin,Experiment_EEG_version,20,
Living_Things,../experiment_stimuli/bw_bc_bl/Living_Things/Animals/lioness_24.jpg,Animals,0,lioness,0,16,16,48,68.7308540081,V_nV,1,68.7495321231,70.003520658,0,2,0.451223270036,70.4753032972,1,1,0.170643738471,5,6.0,32,bw,99.7793200564,2019_jul_12_1640,014,256,20,5,mattin,Experiment_EEG_version,20,
Living_Things,../experiment_stimuli/bw_bc_bl/Living_Things/Animals/lynx_12.jpg,Animals,0,lynx,0,17,17,50,72.3787910882,nV_V,2,72.405130873,73.6815363173,1,2,1.10263766767,74.8047163659,3,0,0.230734352721,5,6.5,32,bw,99.7793200564,2019_jul_12_1640,014,256,20,5,mattin,Experiment_EEG_version,20,
Nonliving_Things,../experiment_stimuli/bw_bc_bl/Nonliving_Things/Furniture/couch_2.jpg,Furniture,0,couch,0,18,18,19,76.7683428794,V_nV,2,76.7852916331,78.0310059374,0,1,0.701755217975,78.7533122576,2,0,1.62375352136,5,6.5,32,bw,99.7793200564,2019_jul_12_1640,014,256,20,5,mattin,Experiment_EEG_version,20,
Nonliving_Things,../experiment_stimuli/bw_bc_bl/Nonliving_Things/Kitchen_Uten/frying-pan_1.jpg,Kitchen_Uten,0,frying-pan,0,19,19,31,82.1099818163,V_nV,2,82.1377260666,83.3726251523,1,2,0.361025885679,83.7542062155,2,0,0.180720893433,5,6.0,32,bw,99.7793200564,2019_jul_12_1640,014,256,20,5,mattin,Experiment_EEG_version,20,
Nonliving_Things,../experiment_stimuli/bw_bc_bl/Nonliving_Things/Kitchen_Uten/cup_19.jpg,Kitchen_Uten,0,cup,0,20,20,22,85.6677320942,nV_V,1,85.6976832647,86.9203590006,0,2,0.270813222975,87.2117237321,2,0,0.230717837811,5,6.5,32,bw,99.7793200564,2019_jul_12_1640,014,256,20,5,mattin,Experiment_EEG_version,20,
Living_Things,../experiment_stimuli/bw_bc_bl/Living_Things/Insects/scorpion_9.jpg,Insects,0,scorpion,0,21,21,73,89.175364922,nV_V,2,89.2001054983,90.4279887907,0,1,0.310923498822,90.7594871023,2,0,0.120483570499,5,6.5,32,bw,99.7793200564,2019_jul_12_1640,014,256,20,5,mattin,Experiment_EEG_version,20,
Nonliving_Things,../experiment_stimuli/bw_bc_bl/Nonliving_Things/Buildings/granary_7.jpg,Buildings,0,granary,0,22,22,35,92.6128473077,nV_V,1,92.6293179539,93.8554568067,0,2,0.681550739566,94.5575601186,2,0,0.681709557306,5,6.0,32,bw,99.7793200564,2019_jul_12_1640,014,256,20,5,mattin,Experiment_EEG_version,20,
Living_Things,../experiment_stimuli/bw_bc_bl/Living_Things/Animals/hippopotamus_14.jpg,Animals,0,hippopotamus,0,23,23,39,96.9723404744,nV_V,2,96.9974865161,98.2249712527,1,2,0.381074444624,98.6265942962,1,1,0.200720877852,5,7.0,32,bw,99.7793200564,2019_jul_12_1640,014,256,20,5,mattin,Experiment_EEG_version,20,
Nonliving_Things,../experiment_stimuli/bw_bc_bl/Nonliving_Things/Musical_Inst/drum_1.jpg,Musical_Inst,0,drum,0,24,24,25,100.560154253,V_nV,2,100.576283042,101.812776298,0,1,0.421142844716,102.254509411,2,0,0.110465527978,5,6.5,32,bw,99.7793200564,2019_jul_12_1640,014,256,20,5,mattin,Experiment_EEG_version,20,
Nonliving_Things,../experiment_stimuli/bw_bc_bl/Nonliving_Things/Vehicles/bus_17.jpg,Vehicles,0,bus,0,25,25,9,104.097855529,nV_V,1,104.128813271,105.350484082,0,2,0.320927075343,105.691959883,1,1,0.120486705797,5,7.0,32,bw,99.7793200564,2019_jul_12_1640,014,256,20,5,mattin,Experiment_EEG_version,20,
Living_Things,../experiment_stimuli/bw_bc_bl/Living_Things/Marine_creatures/crab_6.jpg,Marine_creatures,0,crab,0,26,26,21,107.545356837,nV_V,2,107.566241037,108.808011651,1,2,0.56145155197,109.400047438,2,0,0.180622766493,5,6.5,32,bw,99.7793200564,2019_jul_12_1640,014,256,20,5,mattin,Experiment_EEG_version,20,
Living_Things,../experiment_stimuli/bw_bc_bl/Living_Things/Birds/goose_1.jpg,Birds,0,goose,0,27,27,34,111.313565899,V_nV,1,111.330231679,112.566192573,0,2,0.150593863567,112.737338227,1,1,0.0904322315473,5,6.5,32,bw,99.7793200564,2019_jul_12_1640,014,256,20,5,mattin,Experiment_EEG_version,20,
Nonliving_Things,../experiment_stimuli/bw_bc_bl/Nonliving_Things/Buildings/castle_17.jpg,Buildings,0,castle,0,28,28,12,114.560648435,V_nV,2,114.577898134,115.833309322,1,2,0.491312824422,116.345181505,3,0,0.220704776002,5,7.0,32,bw,99.7793200564,2019_jul_12_1640,014,256,20,5,mattin,Experiment_EEG_version,20,
Nonliving_Things,../experiment_stimuli/bw_bc_bl/Nonliving_Things/Buildings/church_21.jpg,Buildings,0,church,0,29,29,17,118.298775036,nV_V,1,118.330062854,119.551400416,1,1,0.791952481959,120.363899516,2,0,0.150552540785,5,6.0,32,bw,99.7793200564,2019_jul_12_1640,014,256,20,5,mattin,Experiment_EEG_version,20,
Living_Things,../experiment_stimuli/bw_bc_bl/Living_Things/Birds/pelican_4.jpg,Birds,0,pelican,0,30,30,60,122.247397131,V_nV,1,122.264503886,123.490000381,0,2,0.320930075599,123.831462548,2,0,0.230725428089,5,6.0,32,bw,99.7793200564,2019_jul_12_1640,014,256,20,5,mattin,Experiment_EEG_version,20,
Nonliving_Things,../experiment_stimuli/bw_bc_bl/Nonliving_Things/Buildings/house_3.jpg,Buildings,0,house,0,31,31,41,125.795112062,nV_V,1,125.813332043,127.037706343,1,1,0.0904291300103,127.148675313,1,1,0.130507056834,5,7.0,32,bw,99.7793200564,2019_jul_12_1640,014,256,20,5,mattin,Experiment_EEG_version,20,
Nonliving_Things,../experiment_stimuli/bw_bc_bl/Nonliving_Things/Furniture/sofa_23.jpg,Furniture,0,sofa,0,32,32,78,129.01211506,nV_V,1,129.029707277,130.264731485,0,2,0.170611975947,130.455919439,1,1,0.12047850294,5,6.5,32,bw,99.7793200564,2019_jul_12_1640,014,256,20,5,mattin,Experiment_EEG_version,20,
Nonliving_Things,../experiment_stimuli/bw_bc_bl/Nonliving_Things/Furniture/lamp_22.jpg,Furniture,0,lamp,0,33,33,46,132.309305009,nV_V,1,132.324641863,133.571948007,0,2,0.10044795135,133.692970463,2,0,0.140537310159,5,6.0,32,bw,99.7793200564,2019_jul_12_1640,014,256,20,5,mattin,Experiment_EEG_version,20,
Nonliving_Things,../experiment_stimuli/bw_bc_bl/Nonliving_Things/Buildings/palace_20.jpg,Buildings,0,palace,0,34,34,58,135.566377291,V_nV,2,135.582716153,136.819012532,1,2,0.0904250249732,136.929986539,1,1,0.150547961937,5,6.0,32,bw,99.7793200564,2019_jul_12_1640,014,256,20,5,mattin,Experiment_EEG_version,20,
Living_Things,../experiment_stimuli/bw_bc_bl/Living_Things/Marine_creatures/pomfret_26.jpg,Marine_creatures,0,pomfret,0,35,35,65,138.813442918,nV_V,2,138.833950235,140.086118714,0,1,0.100448191632,140.207130659,2,0,0.140526761301,5,6.0,32,bw,99.7793200564,2019_jul_12_1640,014,256,20,5,mattin,Experiment_EEG_version,20,
Living_Things,../experiment_stimuli/bw_bc_bl/Living_Things/Insects/butterfly_14.jpg,Insects,0,butterfly,0,36,36,10,142.080556735,nV_V,2,142.097314867,143.343209519,1,2,0.250774058281,143.614634104,1,1,0.120487363543,5,8.0,32,bw,99.7793200564,2019_jul_12_1640,014,256,20,5,mattin,Experiment_EEG_version,20,
Living_Things,../experiment_stimuli/bw_bc_bl/Living_Things/Animals/rhino_5.jpg,Animals,0,rhino,0,37,37,68,145.467937238,nV_V,2,145.483973408,146.760657033,1,2,0.531487268629,147.312703795,3,0,0.220702148275,5,6.0,32,bw,99.7793200564,2019_jul_12_1640,014,256,20,5,mattin,Experiment_EEG_version,20,
Living_Things,../experiment_stimuli/bw_bc_bl/Living_Things/Birds/partridge_5.jpg,Birds,0,partridge,0,38,38,59,149.266214831,nV_V,2,149.285022009,150.538880259,1,2,0.1505554053,150.709988519,2,0,0.381051474484,5,6.0,32,bw,99.7793200564,2019_jul_12_1640,014,256,20,5,mattin,Experiment_EEG_version,20,
Living_Things,../experiment_stimuli/bw_bc_bl/Living_Things/Animals/zebra_4.jpg,Animals,0,zebra,0,39,39,95,152.823959196,nV_V,2,152.83961105,154.08661769,1,2,0.18061052612,154.287772281,2,0,0.511337345932,5,8.0,32,bw,99.7793200564,2019_jul_12_1640,014,256,20,5,mattin,Experiment_EEG_version,20,
Living_Things,../experiment_stimuli/bw_bc_bl/Living_Things/Birds/ostrich_1.jpg,Birds,0,ostrich,0,40,40,56,156.532025172,nV_V,2,156.549790248,157.784654405,1,2,0.310903021367,158.116127638,1,1,0.130505586974,5,6.0,32,bw,99.7793200564,2019_jul_12_1640,014,256,20,5,mattin,Experiment_EEG_version,20,
Living_Things,../experiment_stimuli/bw_bc_bl/Living_Things/Birds/barn-owl_8.jpg,Birds,0,barn-owl,0,41,41,4,159.979567047,nV_V,2,160.005325349,161.252205062,1,2,0.310901871184,161.583659434,1,1,0.0703749058302,5,7.0,32,bw,99.7793200564,2019_jul_12_1640,014,256,20,5,mattin,Experiment_EEG_version,20,
Nonliving_Things,../experiment_stimuli/bw_bc_bl/Nonliving_Things/Vehicles/train_16.jpg,Vehicles,0,train,0,42,42,87,163.38696326,nV_V,1,163.402270423,164.659627771,0,2,0.230746348388,164.910926568,1,1,0.12048859708,5,6.5,32,bw,99.7793200564,2019_jul_12_1640,014,256,20,5,mattin,Experiment_EEG_version,20,
Living_Things,../experiment_stimuli/bw_bc_bl/Living_Things/Animals/tiger_24.jpg,Animals,0,tiger,0,43,43,84,166.764314878,nV_V,2,166.781683267,168.067100573,0,1,0.791953504784,168.879623071,3,0,0.120481111808,5,6.5,32,bw,99.7793200564,2019_jul_12_1640,014,256,20,5,mattin,Experiment_EEG_version,20,
Living_Things,../experiment_stimuli/bw_bc_bl/Living_Things/Animals/tapir_19.jpg,Animals,0,tapir,0,44,44,82,170.732947288,nV_V,2,170.746131387,172.005634088,1,2,0.571473459247,172.59763868,3,0,0.170615562471,5,6.5,32,bw,99.7793200564,2019_jul_12_1640,014,256,20,5,mattin,Experiment_EEG_version,20,
Living_Things,../experiment_stimuli/bw_bc_bl/Living_Things/Birds/seagull_7.jpg,Birds,0,seagull,0,45,45,74,174.50115696,V_nV,1,174.519414267,175.753781092,0,2,0.17058619787,175.944947941,2,0,0.180621966021,5,6.0,32,bw,99.7793200564,2019_jul_12_1640,014,256,20,5,mattin,Experiment_EEG_version,20,
Living_Things,../experiment_stimuli/bw_bc_bl/Living_Things/Animals/cat_23.jpg,Animals,0,cat,0,46,46,13,177.858460695,nV_V,2,177.875835204,179.101071841,1,2,0.120497743133,179.242129202,2,0,0.210683334852,5,6.0,32,bw,99.7793200564,2019_jul_12_1640,014,256,20,5,mattin,Experiment_EEG_version,20,
Nonliving_Things,../experiment_stimuli/bw_bc_bl/Nonliving_Things/Furniture/chair_22.jpg,Furniture,0,chair,0,47,47,15,181.1857076,nV_V,1,181.209032657,182.428319249,1,1,1.60373818758,184.052617983,2,0,0.150601953734,5,8.0,32,bw,99.7793200564,2019_jul_12_1640,014,256,20,5,mattin,Experiment_EEG_version,20,
Living_Things,../experiment_stimuli/bw_bc_bl/Living_Things/Insects/dragonfly_18.jpg,Insects,0,dragonfly,0,48,48,24,185.936057516,V_nV,1,185.956551694,187.178669853,0,2,0.270818854449,187.470038122,1,1,0.0904210363515,5,6.5,32,bw,99.7793200564,2019_jul_12_1640,014,256,20,5,mattin,Experiment_EEG_version,20,
Living_Things,../experiment_stimuli/bw_bc_bl/Living_Things/Marine_creatures/shark_26.jpg,Marine_creatures,0,shark,0,49,49,75,189.293384879,nV_V,2,189.307534234,190.545993744,1,2,0.190664895577,190.757235606,2,0,0.130503635854,5,7.5,32,bw,99.7793200564,2019_jul_12_1640,014,256,20,5,mattin,Experiment_EEG_version,20,
Living_Things,../experiment_stimuli/bw_bc_bl/Living_Things/Birds/magpie_8.jpg,Birds,0,magpie,0,50,50,51,192.620620287,V_nV,1,192.63487186,193.864247753,1,1,0.230730660725,194.124537054,2,0,0.180662954226,5,6.0,32,bw,99.7793200564,2019_jul_12_1640,014,256,20,5,mattin,Experiment_EEG_version,20,
Nonliving_Things,../experiment_stimuli/bw_bc_bl/Nonliving_Things/Musical_Inst/guitar_22.jpg,Musical_Inst,0,guitar,0,51,51,36,196.038054569,V_nV,2,196.061196963,197.280662229,0,1,0.711782189319,198.023030432,2,0,0.150597547647,5,6.0,32,bw,99.7793200564,2019_jul_12_1640,014,256,20,5,mattin,Experiment_EEG_version,20,
Nonliving_Things,../experiment_stimuli/bw_bc_bl/Nonliving_Things/Vehicles/motorbike_22.jpg,Vehicles,0,motorbike,0,52,52,54,199.906476435,V_nV,2,199.930540755,201.159104307,1,2,1.2930405587,202.472735919,2,0,0.280837682541,5,6.5,32,bw,99.7793200564,2019_jul_12_1640,014,256,20,5,mattin,Experiment_EEG_version,20,
Nonliving_Things,../experiment_stimuli/bw_bc_bl/Nonliving_Things/Kitchen_Uten/pot_23.jpg,Kitchen_Uten,0,pot,0,53,53,66,204.486451564,nV_V,1,204.501959179,205.729055217,0,2,0.280853013275,206.030481664,2,0,0.340965127107,5,6.5,32,bw,99.7793200564,2019_jul_12_1640,014,256,20,5,mattin,Experiment_EEG_version,20,
Living_Things,../experiment_stimuli/bw_bc_bl/Living_Things/Marine_creatures/whale_3.jpg,Marine_creatures,0,whale,0,54,54,94,208.104355177,nV_V,2,208.122782393,209.34693144,0,1,0.310902525205,209.678404759,2,0,0.150591750862,5,6.0,32,bw,99.7793200564,2019_jul_12_1640,014,256,20,5,mattin,Experiment_EEG_version,20,
Nonliving_Things,../experiment_stimuli/bw_bc_bl/Nonliving_Things/Furniture/lectern_13.jpg,Furniture,0,lectern,0,55,55,47,211.561854825,V_nV,2,211.579528854,212.804472531,0,1,0.0703812702559,212.895407017,1,1,0.120504878461,5,6.0,32,bw,99.7793200564,2019_jul_12_1640,014,256,20,5,mattin,Experiment_EEG_version,20,
Nonliving_Things,../experiment_stimuli/bw_bc_bl/Nonliving_Things/Vehicles/boat_25.jpg,Vehicles,0,boat,0,56,56,7,214.74879809,V_nV,2,214.773508565,216.031490678,1,2,0.561452300288,216.613506163,3,0,0.14037717646,5,6.0,32,bw,99.7793200564,2019_jul_12_1640,014,256,20,5,mattin,Experiment_EEG_version,20,
Nonliving_Things,../experiment_stimuli/bw_bc_bl/Nonliving_Things/Kitchen_Uten/saucepan_14.jpg,Kitchen_Uten,0,saucepan,0,57,57,71,218.486933724,nV_V,1,218.517464268,219.749589282,0,2,0.471258077538,220.241427443,1,1,0.0202753650956,5,7.0,32,bw,99.7793200564,2019_jul_12_1640,014,256,20,5,mattin,Experiment_EEG_version,20,
Living_Things,../experiment_stimuli/bw_bc_bl/Living_Things/Birds/pigeon_1.jpg,Birds,0,pigeon,0,58,58,63,221.994619266,V_nV,1,222.017045344,223.257226557,1,1,0.461233801674,223.739026446,2,0,0.0904737534001,5,6.0,32,bw,99.7793200564,2019_jul_12_1640,014,256,20,5,mattin,Experiment_EEG_version,20,
Nonliving_Things,../experiment_stimuli/bw_bc_bl/Nonliving_Things/Musical_Inst/violin_6.jpg,Musical_Inst,0,violin,0,59,59,92,225.562338749,nV_V,1,225.590989347,226.824995679,0,2,0.521372407442,227.366933144,2,0,0.320928210858,5,6.5,32,bw,99.7793200564,2019_jul_12_1640,014,256,20,5,mattin,Experiment_EEG_version,20,
Living_Things,../experiment_stimuli/bw_bc_bl/Living_Things/Animals/giraffe_25.jpg,Animals,0,giraffe,0,60,60,32,229.420747519,V_nV,1,229.437829088,230.663350278,1,1,0.0703959055245,230.754333297,1,1,0.130509496899,5,6.0,32,bw,99.7793200564,2019_jul_12_1640,014,256,20,5,mattin,Experiment_EEG_version,20,
Living_Things,../experiment_stimuli/bw_bc_bl/Living_Things/Animals/turtle_23.jpg,Animals,0,turtle,0,61,61,90,232.617712079,V_nV,1,232.635455832,233.890386473,0,2,0.230747991707,234.141700477,2,0,0.330788917141,5,6.0,32,bw,99.7793200564,2019_jul_12_1640,014,256,20,5,mattin,Experiment_EEG_version,20,
Living_Things,../experiment_stimuli/bw_bc_bl/Living_Things/Birds/hummingbird_11.jpg,Birds,0,hummingbird,0,62,62,42,236.205516753,V_nV,1,236.227443983,237.468169968,1,1,0.611566607608,238.100300284,2,0,0.992388186511,5,6.5,32,bw,99.7793200564,2019_jul_12_1640,014,256,20,5,mattin,Experiment_EEG_version,20,
Living_Things,../experiment_stimuli/bw_bc_bl/Living_Things/Birds/penguin_0.jpg,Birds,0,penguin,0,63,63,61,240.8255768,nV_V,2,240.842363109,242.07820697,1,2,0.561458616052,242.660241447,2,0,0.130514545599,5,8.0,32,bw,99.7793200564,2019_jul_12_1640,014,256,20,5,mattin,Experiment_EEG_version,20,
Living_Things,../experiment_stimuli/bw_bc_bl/Living_Things/Birds/raven_11.jpg,Birds,0,raven,0,64,64,67,244.523652071,nV_V,2,244.542125866,245.766238882,1,2,0.280856618425,246.06765663,1,1,0.150599205634,5,6.0,32,bw,99.7793200564,2019_jul_12_1640,014,256,20,5,mattin,Experiment_EEG_version,20,
Nonliving_Things,../experiment_stimuli/bw_bc_bl/Nonliving_Things/Furniture/filling-cabinet_21.jpg,Furniture,0,filling-cabinet,0,65,65,29,247.951095246,V_nV,2,247.97268266,249.203724799,0,1,0.13050048938,249.364798377,1,1,0.130519188475,5,6.5,32,bw,99.7793200564,2019_jul_12_1640,014,256,20,5,mattin,Experiment_EEG_version,20,
Nonliving_Things,../experiment_stimuli/bw_bc_bl/Nonliving_Things/Vehicles/ship_14.jpg,Vehicles,0,ship,0,66,66,76,251.228229538,V_nV,2,251.24395179,252.490889893,0,1,0.120492021553,252.63193713,1,1,0.150565179763,5,6.5,32,bw,99.7793200564,2019_jul_12_1640,014,256,20,5,mattin,Experiment_EEG_version,20,
Nonliving_Things,../experiment_stimuli/bw_bc_bl/Nonliving_Things/Furniture/Chest-of-drawers_20.jpg,Furniture,0,Chest-of-drawers,0,67,67,0,254.515393677,nV_V,1,254.531561658,255.79808455,1,1,0.481275781756,256.299961979,3,0,0.150552615989,5,7.0,32,bw,99.7793200564,2019_jul_12_1640,014,256,20,5,mattin,Experiment_EEG_version,20,
Nonliving_Things,../experiment_stimuli/bw_bc_bl/Nonliving_Things/Kitchen_Uten/fondue_21.jpg,Kitchen_Uten,0,fondue,0,68,68,30,258.183377659,nV_V,1,258.194341361,259.436007392,0,2,0.17062580632,259.627190842,2,0,0.150568288751,5,6.0,32,bw,99.7793200564,2019_jul_12_1640,014,256,20,5,mattin,Experiment_EEG_version,20,
Living_Things,../experiment_stimuli/bw_bc_bl/Living_Things/Animals/horse_0.jpg,Animals,0,horse,0,69,69,40,261.510623244,nV_V,2,261.525570045,262.763250601,1,2,0.0603606107179,262.844148571,1,1,0.250764885452,5,6.0,32,bw,99.7793200564,2019_jul_12_1640,014,256,20,5,mattin,Experiment_EEG_version,20,
Living_Things,../experiment_stimuli/bw_bc_bl/Living_Things/Birds/hen_19.jpg,Birds,0,hen,0,70,70,38,264.827849041,nV_V,2,264.848107399,266.090497073,0,1,0.0904241641983,266.201466415,1,1,0.140534633305,5,6.0,32,bw,99.7793200564,2019_jul_12_1640,014,256,20,5,mattin,Experiment_EEG_version,20,
Living_Things,../experiment_stimuli/bw_bc_bl/Living_Things/Marine_creatures/lobster_9.jpg,Marine_creatures,0,lobster,0,71,71,49,268.084966771,V_nV,1,268.106390119,269.367629907,1,1,0.531383521389,269.91957676,2,0,0.39107085974,5,7.5,32,bw,99.7793200564,2019_jul_12_1640,014,256,20,5,mattin,Experiment_EEG_version,20,
Living_Things,../experiment_stimuli/bw_bc_bl/Living_Things/Birds/sparrow_7.jpg,Birds,0,sparrow,0,72,72,79,272.043558811,V_nV,1,272.064257292,273.316236949,1,1,0.411128106294,273.747900673,3,0,0.170583028812,5,6.0,32,bw,99.7793200564,2019_jul_12_1640,014,256,20,5,mattin,Experiment_EEG_version,20,
Living_Things,../experiment_stimuli/bw_bc_bl/Living_Things/Birds/rooster_24.jpg,Birds,0,rooster,0,73,73,70,275.651414792,V_nV,1,275.670730607,276.894032238,1,1,0.0904504044447,277.005062617,1,1,0.0704272550065,5,8.0,32,bw,99.7793200564,2019_jul_12_1640,014,256,20,5,mattin,Experiment_EEG_version,20,
Nonliving_Things,../experiment_stimuli/bw_bc_bl/Nonliving_Things/Musical_Inst/saxophone_22.jpg,Musical_Inst,0,saxophone,0,74,74,72,278.808300936,V_nV,2,278.822697484,280.070951934,1,2,0.361015419476,280.452491129,1,1,0.0804048918653,5,6.0,32,bw,99.7793200564,2019_jul_12_1640,014,256,20,5,mattin,Experiment_EEG_version,20,
Nonliving_Things,../experiment_stimuli/bw_bc_bl/Nonliving_Things/Kitchen_Uten/small-saucepan_18.jpg,Kitchen_Uten,0,small-saucepan,0,75,75,77,282.265818486,V_nV,2,282.270926194,283.528465984,0,1,0.501323923469,284.050368502,2,0,0.0704337698407,5,6.0,32,bw,99.7793200564,2019_jul_12_1640,014,256,20,5,mattin,Experiment_EEG_version,20,
Nonliving_Things,../experiment_stimuli/bw_bc_bl/Nonliving_Things/Tools/axe_3.jpg,Tools,0,axe,0,76,76,3,285.853628847,nV_V,1,285.872686026,287.116288413,1,1,0.501322900876,287.638144258,2,0,0.120531385532,5,6.0,32,bw,99.7793200564,2019_jul_12_1640,014,256,20,5,mattin,Experiment_EEG_version,20,
Nonliving_Things,../experiment_stimuli/bw_bc_bl/Nonliving_Things/Buildings/mill_6.jpg,Buildings,0,mill,0,77,77,53,289.491568997,nV_V,1,289.515791354,290.754208961,0,2,0.120491141919,290.895257642,1,1,0.180671100738,5,6.0,32,bw,99.7793200564,2019_jul_12_1640,014,256,20,5,mattin,Experiment_EEG_version,20,
Living_Things,../experiment_stimuli/bw_bc_bl/Living_Things/Animals/cow_7.jpg,Animals,0,cow,0,78,78,20,292.808779863,V_nV,1,292.825407583,294.101488301,0,2,0.581495216349,294.703560969,3,0,0.100764556788,5,6.0,32,bw,99.7793200564,2019_jul_12_1640,014,256,20,5,mattin,Experiment_EEG_version,20,
Nonliving_Things,../experiment_stimuli/bw_bc_bl/Nonliving_Things/Furniture/bedside-table_11.jpg,Furniture,0,bedside-table,0,79,79,6,296.536894337,nV_V,1,296.556637948,297.809564198,1,1,0.501318002818,298.331446254,2,0,0.0301368944347,5,7.5,32,bw,99.7793200564,2019_jul_12_1640,014,256,20,5,mattin,Experiment_EEG_version,20,
Living_Things,../experiment_stimuli/bw_bc_bl/Living_Things/Animals/elephant_23.jpg,Animals,0,elephant,0,80,80,27,300.094643526,nV_V,2,300.118207152,301.347270326,1,2,0.0202683235984,301.388088678,1,1,0.220762237906,5,6.0,32,bw,99.7793200564,2019_jul_12_1640,014,256,20,5,mattin,Experiment_EEG_version,20,
Nonliving_Things,../experiment_stimuli/bw_bc_bl/Nonliving_Things/Furniture/armchair_16.jpg,Furniture,0,armchair,0,81,81,2,303.341709968,nV_V,1,303.36955574,304.634427304,1,1,0.611555630108,305.266535402,2,0,0.120529618813,5,7.0,32,bw,99.7793200564,2019_jul_12_1640,014,256,20,5,mattin,Experiment_EEG_version,20,
Nonliving_Things,../experiment_stimuli/bw_bc_bl/Nonliving_Things/Tools/hammer_3.jpg,Tools,0,hammer,0,82,82,37,307.119933675,nV_V,1,307.154080187,308.412654169,1,1,0.210687819635,308.643902986,1,1,0.200660476228,5,7.5,32,bw,99.7793200564,2019_jul_12_1640,014,256,20,5,mattin,Experiment_EEG_version,20,
Living_Things,../experiment_stimuli/bw_bc_bl/Living_Things/Marine_creatures/manatee_8.jpg,Marine_creatures,0,manatee,0,83,83,52,310.577467507,V_nV,1,310.591941363,311.880207412,1,1,0.962323434185,312.863092866,3,0,0.371032860363,5,6.5,32,bw,99.7793200564,2019_jul_12_1640,014,256,20,5,mattin,Experiment_EEG_version,20,
Nonliving_Things,../experiment_stimuli/bw_bc_bl/Nonliving_Things/Kitchen_Uten/coking-pot_24.jpg,Kitchen_Uten,0,coking-pot,0,84,84,18,314.977048333,nV_V,1,314.995816688,316.249717535,0,2,0.681713207858,316.951985116,3,0,0.150546184042,5,6.5,32,bw,99.7793200564,2019_jul_12_1640,014,256,20,5,mattin,Experiment_EEG_version,20,
Living_Things,../experiment_stimuli/bw_bc_bl/Living_Things/Animals/armadillo_11.jpg,Animals,0,armadillo,0,85,85,1,318.835452013,V_nV,1,318.858036613,320.088076852,1,1,0.531383871334,320.640031758,2,0,0.140534441918,5,6.0,32,bw,99.7793200564,2019_jul_12_1640,014,256,20,5,mattin,Experiment_EEG_version,20,
Living_Things,../experiment_stimuli/bw_bc_bl/Living_Things/Insects/ladybird_11.jpg,Insects,0,ladybird,0,86,86,45,322.513457887,nV_V,2,322.528284183,323.756072972,0,1,0.661685314029,324.438320547,1,1,0.100567171816,5,7.5,32,bw,99.7793200564,2019_jul_12_1640,014,256,20,5,mattin,Experiment_EEG_version,20,
Nonliving_Things,../experiment_stimuli/bw_bc_bl/Nonliving_Things/Musical_Inst/piano__7.jpg,Musical_Inst,0,piano,0,87,87,62,326.271652839,V_nV,2,326.295913511,327.544317188,1,2,0.531402197899,328.096289793,2,0,0.150549345417,5,8.0,32,bw,99.7793200564,2019_jul_12_1640,014,256,20,5,mattin,Experiment_EEG_version,20,
Nonliving_Things,../experiment_stimuli/bw_bc_bl/Nonliving_Things/Kitchen_Uten/teapot_16.jpg,Kitchen_Uten,0,teapot,0,88,88,83,329.979712781,V_nV,2,330.008207426,331.242366227,1,2,0.361008156091,331.6239302,2,0,0.150557529414,5,8.0,32,bw,99.7793200564,2019_jul_12_1640,014,256,20,5,mattin,Experiment_EEG_version,20,
Nonliving_Things,../experiment_stimuli/bw_bc_bl/Nonliving_Things/Musical_Inst/tuba_14.jpg,Musical_Inst,0,tuba,0,89,89,89,333.507405164,nV_V,1,333.541251906,334.770060858,0,2,0.180627800291,334.971261471,2,0,0.461227192776,5,6.0,32,bw,99.7793200564,2019_jul_12_1640,014,256,20,5,mattin,Experiment_EEG_version,20,
Nonliving_Things,../experiment_stimuli/bw_bc_bl/Nonliving_Things/Vehicles/plane_16.jpg,Vehicles,0,plane,0,90,90,64,337.165375287,V_nV,2,337.185330061,338.417992641,0,1,0.481294127647,338.919864562,2,0,0.0501749385148,5,7.5,32,bw,99.7793200564,2019_jul_12_1640,014,256,20,5,mattin,Experiment_EEG_version,20,
Nonliving_Things,../experiment_stimuli/bw_bc_bl/Nonliving_Things/Furniture/bookcase_15.jpg,Furniture,0,bookcase,0,91,91,8,340.703064514,nV_V,1,340.727936566,341.955709029,0,2,0.0102716831025,341.986540863,2,0,0.180621744134,5,6.0,32,bw,99.7793200564,2019_jul_12_1640,014,256,20,5,mattin,Experiment_EEG_version,20,
Nonliving_Things,../experiment_stimuli/bw_bc_bl/Nonliving_Things/Furniture/wardrobe_18.jpg,Furniture,0,wardrobe,0,92,92,93,343.900027773,V_nV,2,343.923045446,345.142650223,0,1,0.0704506454058,345.233637444,1,1,2.5957252353,5,6.0,32,bw,99.7793200564,2019_jul_12_1640,014,256,20,5,mattin,Experiment_EEG_version,20,
Living_Things,../experiment_stimuli/bw_bc_bl/Living_Things/Birds/goldfinch_8.jpg,Birds,0,goldfinch,0,93,93,33,349.572382725,V_nV,1,349.596185322,350.835045696,1,1,0.130498568295,350.986110863,1,1,0.0904077696614,5,6.0,32,bw,99.7793200564,2019_jul_12_1640,014,256,20,5,mattin,Experiment_EEG_version,20,
Nonliving_Things,../experiment_stimuli/bw_bc_bl/Nonliving_Things/Buildings/cathedral_3.jpg,Buildings,0,cathedral,0,94,94,14,352.809424794,V_nV,2,352.822246776,354.092123403,1,2,0.230748934904,354.343444527,1,1,0.090441840468,5,7.0,32,bw,99.7793200564,2019_jul_12_1640,014,256,20,5,mattin,Experiment_EEG_version,20,
Living_Things,../experiment_stimuli/bw_bc_bl/Living_Things/Marine_creatures/dolphin_15.jpg,Marine_creatures,0,dolphin,0,95,95,23,356.166730582,nV_V,2,356.187691759,357.489526374,1,2,2.44554830738,359.955641426,3,0,0.100489003351,5,7.5,32,bw,99.7793200564,2019_jul_12_1640,014,256,20,5,mattin,Experiment_EEG_version,20,
