category,probe_path,subcategory,fixation_duration,label,trials.thisRepN,trials.thisTrialN,trials.thisN,trials.thisIndex,image_onset_time,response_window,correctAns,probe_onset,discrim_resptime,response.corr,response.keys,response.rt,visible_resptime,visible.keys,visible.corr,visible.rt,probeFrames,jitter2,n_square,experiment_color,frameRate,date,session,image_size,premask_dur,probeFrames,participant,expName,postmask_dur,
Living_Things,../experiment_stimuli/bw_bc_bl/Living_Things/Insects/ladybird_17.jpg,Insects,0,ladybird,0,0,0,45,3.72509119532,nV_V,2,3.76173832756,5.02781782264,1,2,0.892160526011,5.95082937856,3,0,0.170581697952,5,6.0,32,bw,99.7846874227,2019_jun_28_1608,008,256,20,5,mattin,Experiment_EEG_version,20,
Nonliving_Things,../experiment_stimuli/bw_bc_bl/Nonliving_Things/Vehicles/car_26.jpg,Vehicles,0,car,0,1,1,11,7.8540729431,nV_V,1,7.86874698801,9.11673008348,0,2,0.701739635551,9.83902869001,2,0,0.401086616679,5,7.5,32,bw,99.7846874227,2019_jun_28_1608,008,256,20,5,mattin,Experiment_EEG_version,20,
Nonliving_Things,../experiment_stimuli/bw_bc_bl/Nonliving_Things/Furniture/lectern_15.jpg,Furniture,0,lectern,0,2,2,47,11.973065516,V_nV,2,11.9936176973,13.2256802419,1,2,0.61155059305,13.8577875351,2,0,0.290858315537,5,6.0,32,bw,99.7846874227,2019_jun_28_1608,008,256,20,5,mattin,Experiment_EEG_version,20,
Living_Things,../experiment_stimuli/bw_bc_bl/Living_Things/Animals/giraffe_12.jpg,Animals,0,giraffe,0,3,3,32,15.8815579142,nV_V,2,15.9121453221,17.1341803579,1,2,0.731839973829,17.8865760171,3,0,1.00224689639,5,6.0,32,bw,99.7846874227,2019_jun_28_1608,008,256,20,5,mattin,Experiment_EEG_version,20,
Nonliving_Things,../experiment_stimuli/bw_bc_bl/Nonliving_Things/Vehicles/bus_15.jpg,Vehicles,0,bus,0,4,4,9,20.6218728174,nV_V,1,20.6387655492,21.8644802298,0,2,0.521347204689,22.4064003638,2,0,0.260806138511,5,6.5,32,bw,99.7846874227,2019_jun_28_1608,008,256,20,5,mattin,Experiment_EEG_version,20,
Nonliving_Things,../experiment_stimuli/bw_bc_bl/Nonliving_Things/Kitchen_Uten/teapot_18.jpg,Kitchen_Uten,0,teapot,0,5,5,83,24.4000959944,V_nV,2,24.428575658,25.6527277989,0,1,0.842053248663,26.5153697887,2,0,0.200643822318,5,6.5,32,bw,99.7846874227,2019_jun_28_1608,008,256,20,5,mattin,Experiment_EEG_version,20,
Living_Things,../experiment_stimuli/bw_bc_bl/Living_Things/Birds/seagull_18.jpg,Birds,0,seagull,0,6,6,74,28.4489114378,nV_V,2,28.4706176704,29.6915339779,1,2,0.832028649515,30.5440976059,2,0,0.170582712977,5,8.0,32,bw,99.7846874227,2019_jun_28_1608,008,256,20,5,mattin,Experiment_EEG_version,20,
Nonliving_Things,../experiment_stimuli/bw_bc_bl/Nonliving_Things/Kitchen_Uten/pot_25.jpg,Kitchen_Uten,0,pot,0,7,7,66,32.4476180737,V_nV,2,32.4909136081,33.7102694211,0,1,0.551417900249,34.2822656606,2,0,0.200498331571,5,6.0,32,bw,99.7846874227,2019_jun_28_1608,008,256,20,5,mattin,Experiment_EEG_version,20,
Living_Things,../experiment_stimuli/bw_bc_bl/Living_Things/Birds/partridge_16.jpg,Birds,0,partridge,0,8,8,59,36.2158193167,nV_V,2,36.2393765824,37.4584470185,1,2,0.471255062497,37.9502524127,2,0,0.180607522721,5,6.0,32,bw,99.7846874227,2019_jun_28_1608,008,256,20,5,mattin,Experiment_EEG_version,20,
Nonliving_Things,../experiment_stimuli/bw_bc_bl/Nonliving_Things/Vehicles/ship_0.jpg,Vehicles,0,ship,0,9,9,76,39.8637966897,nV_V,1,39.884014104,41.1063725048,0,2,0.531214572373,41.6581566683,2,0,0.160582760233,5,7.0,32,bw,99.7846874227,2019_jun_28_1608,008,256,20,5,mattin,Experiment_EEG_version,20,
Nonliving_Things,../experiment_stimuli/bw_bc_bl/Nonliving_Things/Musical_Inst/drum_12.jpg,Musical_Inst,0,drum,0,10,10,25,43.5517919636,nV_V,1,43.5715760253,44.7944092556,0,2,0.771904723952,45.5868739957,1,1,0.150590777397,5,7.5,32,bw,99.7846874227,2019_jun_28_1608,008,256,20,5,mattin,Experiment_EEG_version,20,
Nonliving_Things,../experiment_stimuli/bw_bc_bl/Nonliving_Things/Musical_Inst/saxophone_16.jpg,Musical_Inst,0,saxophone,0,11,11,72,47.4703397801,V_nV,2,47.4940107474,48.7329824772,0,1,0.561283294577,49.3148343477,2,0,0.15059479198,5,8.0,32,bw,99.7846874227,2019_jun_28_1608,008,256,20,5,mattin,Experiment_EEG_version,20,
Living_Things,../experiment_stimuli/bw_bc_bl/Living_Things/Marine_creatures/dolphin_14.jpg,Marine_creatures,0,dolphin,0,12,12,23,51.1984415968,V_nV,1,51.2313051872,52.4510784994,0,2,0.481267206604,52.9529155752,1,1,0.150553322746,5,6.5,32,bw,99.7846874227,2019_jun_28_1608,008,256,20,5,mattin,Experiment_EEG_version,20,
Nonliving_Things,../experiment_stimuli/bw_bc_bl/Nonliving_Things/Kitchen_Uten/coking-pot_10.jpg,Kitchen_Uten,0,coking-pot,0,13,13,18,54.8363654612,V_nV,2,54.8686664636,56.1190650108,1,2,1.35317049944,57.4927815788,2,0,0.551262631314,5,6.0,32,bw,99.7846874227,2019_jun_28_1608,008,256,20,5,mattin,Experiment_EEG_version,20,
Nonliving_Things,../experiment_stimuli/bw_bc_bl/Nonliving_Things/Buildings/granary_6.jpg,Buildings,0,granary,0,14,14,35,59.777125922,nV_V,1,59.8107997443,61.0598305389,1,1,0.731819173088,61.812205266,2,0,0.130575402058,5,6.5,32,bw,99.7846874227,2019_jun_28_1608,008,256,20,5,mattin,Experiment_EEG_version,20,
Living_Things,../experiment_stimuli/bw_bc_bl/Living_Things/Marine_creatures/crab_21.jpg,Marine_creatures,0,crab,0,15,15,21,63.6756299461,V_nV,1,63.6966947007,64.9282455706,0,2,0.751859728713,65.7006796683,1,1,0.200661679264,5,7.0,32,bw,99.7846874227,2019_jun_28_1608,008,256,20,5,mattin,Experiment_EEG_version,20,
Living_Things,../experiment_stimuli/bw_bc_bl/Living_Things/Animals/lynx_5.jpg,Animals,0,lynx,0,16,16,50,67.6342290653,nV_V,2,67.6549741166,68.9169314305,1,2,0.621576237259,69.5590714093,2,0,0.110310969409,5,6.0,32,bw,99.7846874227,2019_jun_28_1608,008,256,20,5,mattin,Experiment_EEG_version,20,
Nonliving_Things,../experiment_stimuli/bw_bc_bl/Nonliving_Things/Musical_Inst/piano__0.jpg,Musical_Inst,0,piano,0,17,17,62,71.4024364852,V_nV,2,71.4248403081,72.6751360706,0,1,0.421509510023,73.1172018711,3,0,0.170573175303,5,6.0,32,bw,99.7846874227,2019_jun_28_1608,008,256,20,5,mattin,Experiment_EEG_version,20,
Living_Things,../experiment_stimuli/bw_bc_bl/Living_Things/Animals/hippopotamus_25.jpg,Animals,0,hippopotamus,0,18,18,39,75.0203166852,V_nV,1,75.0418523897,76.2729484675,1,1,0.581483201357,76.8750026885,2,0,0.210667447885,5,6.0,32,bw,99.7846874227,2019_jun_28_1608,008,256,20,5,mattin,Experiment_EEG_version,20,
Living_Things,../experiment_stimuli/bw_bc_bl/Living_Things/Birds/goldfinch_11.jpg,Birds,0,goldfinch,0,19,19,33,78.8185990226,V_nV,1,78.8329178311,80.0611976722,0,2,0.601555218804,80.6833073132,2,0,0.461218207842,5,6.0,32,bw,99.7846874227,2019_jun_28_1608,008,256,20,5,mattin,Experiment_EEG_version,20,
Living_Things,../experiment_stimuli/bw_bc_bl/Living_Things/Animals/tapir_5.jpg,Animals,0,tapir,0,20,20,82,82.8774385689,nV_V,2,82.8883472487,84.110030352,1,2,0.020263838931,84.1508304101,1,1,0.861931696767,5,6.0,32,bw,99.7846874227,2019_jun_28_1608,008,256,20,5,mattin,Experiment_EEG_version,20,
Living_Things,../experiment_stimuli/bw_bc_bl/Living_Things/Birds/toucan_5.jpg,Birds,0,toucan,0,21,21,85,86.7458538036,V_nV,1,86.7592663097,87.9984936907,0,2,0.290863522445,88.3101094228,1,1,0.340955518186,5,6.0,32,bw,99.7846874227,2019_jun_28_1608,008,256,20,5,mattin,Experiment_EEG_version,20,
Living_Things,../experiment_stimuli/bw_bc_bl/Living_Things/Animals/tiger_8.jpg,Animals,0,tiger,0,22,22,84,90.3837666416,nV_V,2,90.4055024944,91.6564477911,0,1,0.862097912934,92.5391119609,1,1,0.170579137746,5,6.0,32,bw,99.7846874227,2019_jun_28_1608,008,256,20,5,mattin,Experiment_EEG_version,20,
Living_Things,../experiment_stimuli/bw_bc_bl/Living_Things/Marine_creatures/lobster_5.jpg,Marine_creatures,0,lobster,0,23,23,49,94.4426118009,V_nV,1,94.4656390157,95.7453468342,0,2,1.55477849534,97.3207171349,2,0,0.411103343591,5,7.0,32,bw,99.7846874227,2019_jun_28_1608,008,256,20,5,mattin,Experiment_EEG_version,20,
Nonliving_Things,../experiment_stimuli/bw_bc_bl/Nonliving_Things/Furniture/lamp_5.jpg,Furniture,0,lamp,0,24,24,46,99.4635396072,nV_V,1,99.4843114063,100.756260504,0,2,0.220699091675,100.997523461,2,0,0.420980433119,5,7.5,32,bw,99.7846874227,2019_jun_28_1608,008,256,20,5,mattin,Experiment_EEG_version,20,
Nonliving_Things,../experiment_stimuli/bw_bc_bl/Nonliving_Things/Kitchen_Uten/fondue_7.jpg,Kitchen_Uten,0,fondue,0,25,25,30,103.151568279,nV_V,1,103.170265326,104.434280118,0,2,0.962318953243,105.417149426,2,0,0.731823492679,5,6.5,32,bw,99.7846874227,2019_jun_28_1608,008,256,20,5,mattin,Experiment_EEG_version,20,
Nonliving_Things,../experiment_stimuli/bw_bc_bl/Nonliving_Things/Tools/hammer_21.jpg,Tools,0,hammer,0,26,26,37,107.881877425,V_nV,2,107.902743618,109.154550402,1,2,0.59153562726,109.776676738,2,0,0.371023157728,5,6.0,32,bw,99.7846874227,2019_jun_28_1608,008,256,20,5,mattin,Experiment_EEG_version,20,
Living_Things,../experiment_stimuli/bw_bc_bl/Living_Things/Marine_creatures/sperm-whale_24.jpg,Marine_creatures,0,sperm-whale,0,27,27,80,111.880589771,V_nV,1,111.898440696,113.14324501,0,2,0.110463230638,113.274256561,2,0,0.250759742688,5,6.5,32,bw,99.7846874227,2019_jun_28_1608,008,256,20,5,mattin,Experiment_EEG_version,20,
Living_Things,../experiment_stimuli/bw_bc_bl/Living_Things/Insects/dragonfly_13.jpg,Insects,0,dragonfly,0,28,28,24,115.257933969,nV_V,2,115.292680227,116.530628152,1,2,0.180597755825,116.731754717,1,1,0.771920971805,5,6.5,32,bw,99.7846874227,2019_jun_28_1608,008,256,20,5,mattin,Experiment_EEG_version,20,
Nonliving_Things,../experiment_stimuli/bw_bc_bl/Nonliving_Things/Furniture/bed_15.jpg,Furniture,0,bed,0,29,29,5,119.236592729,nV_V,1,119.266965366,120.509271292,0,2,0.461227602209,120.991070606,2,0,0.300868114224,5,6.5,32,bw,99.7846874227,2019_jun_28_1608,008,256,20,5,mattin,Experiment_EEG_version,20,
Nonliving_Things,../experiment_stimuli/bw_bc_bl/Nonliving_Things/Furniture/chair_13.jpg,Furniture,0,chair,0,30,30,15,123.02484216,V_nV,2,123.046759161,124.277480321,0,1,0.0703718416626,124.368408762,2,0,0.170575577416,5,6.0,32,bw,99.7846874227,2019_jun_28_1608,008,256,20,5,mattin,Experiment_EEG_version,20,
Living_Things,../experiment_stimuli/bw_bc_bl/Living_Things/Animals/elephant_16.jpg,Animals,0,elephant,0,31,31,27,126.271917628,nV_V,2,126.28825555,127.51452324,1,2,0.330950076808,127.866044179,1,1,0.78191278188,5,6.0,32,bw,99.7846874227,2019_jun_28_1608,008,256,20,5,mattin,Experiment_EEG_version,20,
Living_Things,../experiment_stimuli/bw_bc_bl/Living_Things/Marine_creatures/narwhal_23.jpg,Marine_creatures,0,narwhal,0,32,32,55,130.380862415,V_nV,1,130.403010146,131.643517773,1,1,0.47124867118,132.135320002,3,0,0.180606210488,5,6.0,32,bw,99.7846874227,2019_jun_28_1608,008,256,20,5,mattin,Experiment_EEG_version,20,
Living_Things,../experiment_stimuli/bw_bc_bl/Living_Things/Insects/scorpion_19.jpg,Insects,0,scorpion,0,33,33,73,134.048853035,nV_V,2,134.066977904,135.291456008,0,1,0.601535629015,135.913574758,1,1,0.230714717298,5,6.0,32,bw,99.7846874227,2019_jun_28_1608,008,256,20,5,mattin,Experiment_EEG_version,20,
Nonliving_Things,../experiment_stimuli/bw_bc_bl/Nonliving_Things/Furniture/armchair_13.jpg,Furniture,0,armchair,0,34,34,2,137.877198042,V_nV,2,137.898008266,139.139841239,0,1,0.501312506502,139.661770776,2,0,0.190667467192,5,6.0,32,bw,99.7846874227,2019_jun_28_1608,008,256,20,5,mattin,Experiment_EEG_version,20,
Living_Things,../experiment_stimuli/bw_bc_bl/Living_Things/Birds/ostrich_15.jpg,Birds,0,ostrich,0,35,35,56,141.585264657,nV_V,2,141.605754354,142.837893281,1,2,0.812010823051,143.670488917,1,1,0.160611639265,5,6.0,32,bw,99.7846874227,2019_jun_28_1608,008,256,20,5,mattin,Experiment_EEG_version,20,
Nonliving_Things,../experiment_stimuli/bw_bc_bl/Nonliving_Things/Furniture/bedside-table_18.jpg,Furniture,0,bedside-table,0,36,36,6,145.563939083,V_nV,2,145.582866785,146.83660112,0,1,0.591511379695,147.448668049,2,0,0.290851601399,5,6.0,32,bw,99.7846874227,2019_jun_28_1608,008,256,20,5,mattin,Experiment_EEG_version,20,
Living_Things,../experiment_stimuli/bw_bc_bl/Living_Things/Animals/rhino_4.jpg,Animals,0,rhino,0,37,37,68,149.472435492,nV_V,2,149.489238905,150.735087144,1,2,0.611550044268,151.367210354,2,0,0.250769434264,5,6.0,32,bw,99.7846874227,2019_jun_28_1608,008,256,20,5,mattin,Experiment_EEG_version,20,
Nonliving_Things,../experiment_stimuli/bw_bc_bl/Nonliving_Things/Furniture/filling-cabinet_10.jpg,Furniture,0,filling-cabinet,0,38,38,29,153.350878059,V_nV,2,153.356997203,154.593504727,1,2,0.972357191029,155.586413257,2,0,0.861947711674,5,6.0,32,bw,99.7846874227,2019_jun_28_1608,008,256,20,5,mattin,Experiment_EEG_version,20,
Nonliving_Things,../experiment_stimuli/bw_bc_bl/Nonliving_Things/Vehicles/tractor_8.jpg,Vehicles,0,tractor,0,39,39,86,158.18141138,nV_V,1,158.201420823,159.424013082,0,2,0.892168394523,160.336741793,2,0,0.220540736453,5,6.5,32,bw,99.7846874227,2019_jun_28_1608,008,256,20,5,mattin,Experiment_EEG_version,20,
Nonliving_Things,../experiment_stimuli/bw_bc_bl/Nonliving_Things/Buildings/mill_19.jpg,Buildings,0,mill,0,40,40,53,162.290347422,V_nV,2,162.316449251,163.542978257,0,1,2.38541412225,165.948946241,1,1,0.230738717015,5,6.0,32,bw,99.7846874227,2019_jun_28_1608,008,256,20,5,mattin,Experiment_EEG_version,20,
Living_Things,../experiment_stimuli/bw_bc_bl/Living_Things/Birds/rooster_26.jpg,Birds,0,rooster,0,41,41,70,167.912595841,nV_V,2,167.928496734,169.185267359,1,2,0.491311234073,169.697129899,1,1,0.320912511903,5,6.0,32,bw,99.7846874227,2019_jun_28_1608,008,256,20,5,mattin,Experiment_EEG_version,20,
Living_Things,../experiment_stimuli/bw_bc_bl/Living_Things/Birds/barn-owl_5.jpg,Birds,0,barn-owl,0,42,42,4,171.750959316,V_nV,1,171.760543653,173.023623191,1,1,0.411117102834,173.45530528,2,0,0.300863606855,5,6.0,32,bw,99.7846874227,2019_jun_28_1608,008,256,20,5,mattin,Experiment_EEG_version,20,
Living_Things,../experiment_stimuli/bw_bc_bl/Living_Things/Birds/kiwi_26.jpg,Birds,0,kiwi,0,43,43,44,175.48909689,V_nV,1,175.494299232,176.751749613,0,2,0.641622769879,177.413932455,3,0,0.170585163753,5,6.0,32,bw,99.7846874227,2019_jun_28_1608,008,256,20,5,mattin,Experiment_EEG_version,20,
Living_Things,../experiment_stimuli/bw_bc_bl/Living_Things/Marine_creatures/manatee_23.jpg,Marine_creatures,0,manatee,0,44,44,52,179.317428931,nV_V,2,179.339317545,180.560041907,0,1,0.491307373042,181.071902296,2,0,0.280820359592,5,6.0,32,bw,99.7846874227,2019_jun_28_1608,008,256,20,5,mattin,Experiment_EEG_version,20,
Nonliving_Things,../experiment_stimuli/bw_bc_bl/Nonliving_Things/Vehicles/train_1.jpg,Vehicles,0,train,0,45,45,87,183.085624779,nV_V,1,183.105742499,184.328239237,1,1,0.611550765694,184.960337533,2,0,0.230722604436,5,6.0,32,bw,99.7846874227,2019_jun_28_1608,008,256,20,5,mattin,Experiment_EEG_version,20,
Living_Things,../experiment_stimuli/bw_bc_bl/Living_Things/Birds/sparrow_24.jpg,Birds,0,sparrow,0,46,46,79,186.923999795,nV_V,2,186.953560158,188.176623013,1,2,0.581486724084,188.778657712,1,1,0.210673304624,5,6.0,32,bw,99.7846874227,2019_jun_28_1608,008,256,20,5,mattin,Experiment_EEG_version,20,
Nonliving_Things,../experiment_stimuli/bw_bc_bl/Nonliving_Things/Furniture/rocking-chair_3.jpg,Furniture,0,rocking-chair,0,47,47,69,190.722259839,V_nV,2,190.745885826,191.99494409,0,1,0.521353257122,192.536846804,2,0,0.230713153374,5,6.0,32,bw,99.7846874227,2019_jun_28_1608,008,256,20,5,mattin,Experiment_EEG_version,20,
Living_Things,../experiment_stimuli/bw_bc_bl/Living_Things/Birds/pigeon_9.jpg,Birds,0,pigeon,0,48,48,63,194.500503512,nV_V,2,194.517600438,195.753124847,1,2,1.03246450413,196.806145977,2,0,0.150536214118,5,7.0,32,bw,99.7846874227,2019_jun_28_1608,008,256,20,5,mattin,Experiment_EEG_version,20,
Living_Things,../experiment_stimuli/bw_bc_bl/Living_Things/Birds/magpie_10.jpg,Birds,0,magpie,0,49,49,51,198.689616772,V_nV,1,198.707617902,199.932226538,0,2,0.310889905319,200.263676997,2,0,0.1806077332,5,8.0,32,bw,99.7846874227,2019_jun_28_1608,008,256,20,5,mattin,Experiment_EEG_version,20,
Nonliving_Things,../experiment_stimuli/bw_bc_bl/Nonliving_Things/Buildings/church_5.jpg,Buildings,0,church,0,50,50,17,202.17720562,V_nV,2,202.20217981,203.42983427,1,2,0.200657799607,203.651069522,2,0,0.150553439511,5,7.5,32,bw,99.7846874227,2019_jun_28_1608,008,256,20,5,mattin,Experiment_EEG_version,20,
Nonliving_Things,../experiment_stimuli/bw_bc_bl/Nonliving_Things/Buildings/castle_26.jpg,Buildings,0,castle,0,51,51,12,205.534513792,V_nV,2,205.5505426,206.777123531,1,2,0.260789604858,207.058487204,1,1,0.15055673616,5,6.5,32,bw,99.7846874227,2019_jun_28_1608,008,256,20,5,mattin,Experiment_EEG_version,20,
Living_Things,../experiment_stimuli/bw_bc_bl/Living_Things/Marine_creatures/whale_8.jpg,Marine_creatures,0,whale,0,52,52,94,208.941929106,V_nV,1,208.957251459,210.214609473,1,1,0.48128451861,210.716455086,3,0,0.180658661062,5,6.0,32,bw,99.7846874227,2019_jun_28_1608,008,256,20,5,mattin,Experiment_EEG_version,20,
Nonliving_Things,../experiment_stimuli/bw_bc_bl/Nonliving_Things/Kitchen_Uten/saucepan_16.jpg,Kitchen_Uten,0,saucepan,0,53,53,71,212.629964402,nV_V,1,212.642444294,213.872592404,0,2,0.571468331502,214.464601297,2,0,0.461215685122,5,6.5,32,bw,99.7846874227,2019_jun_28_1608,008,256,20,5,mattin,Experiment_EEG_version,20,
Living_Things,../experiment_stimuli/bw_bc_bl/Living_Things/Marine_creatures/killer-whale_0.jpg,Marine_creatures,0,killer-whale,0,54,54,43,216.658737722,nV_V,2,216.67811389,217.901346694,0,1,0.381048862007,218.302971554,2,0,0.190479356097,5,6.0,32,bw,99.7846874227,2019_jun_28_1608,008,256,20,5,mattin,Experiment_EEG_version,20,
Nonliving_Things,../experiment_stimuli/bw_bc_bl/Nonliving_Things/Vehicles/boat_22.jpg,Vehicles,0,boat,0,55,55,7,220.22650443,V_nV,2,220.246023638,221.469115098,1,2,0.170589115005,221.660268951,2,0,0.411121960031,5,6.5,32,bw,99.7846874227,2019_jun_28_1608,008,256,20,5,mattin,Experiment_EEG_version,20,
Living_Things,../experiment_stimuli/bw_bc_bl/Living_Things/Birds/pelican_22.jpg,Birds,0,pelican,0,56,56,60,223.804310553,V_nV,1,223.829811606,225.056935753,0,2,0.340973450337,225.418480598,1,1,0.160616112989,5,6.5,32,bw,99.7846874227,2019_jun_28_1608,008,256,20,5,mattin,Experiment_EEG_version,20,
Living_Things,../experiment_stimuli/bw_bc_bl/Living_Things/Animals/cow_21.jpg,Animals,0,cow,0,57,57,20,227.311945896,nV_V,2,227.325026233,228.554542042,1,2,0.320921488921,228.896024731,2,0,0.220693967887,5,7.0,32,bw,99.7846874227,2019_jun_28_1608,008,256,20,5,mattin,Experiment_EEG_version,20,
Nonliving_Things,../experiment_stimuli/bw_bc_bl/Nonliving_Things/Musical_Inst/violin_19.jpg,Musical_Inst,0,violin,0,58,58,92,230.84963672,V_nV,2,230.885279435,232.112291478,1,2,0.671705236309,232.804570602,1,1,0.200673077721,5,7.5,32,bw,99.7846874227,2019_jun_28_1608,008,256,20,5,mattin,Experiment_EEG_version,20,
Living_Things,../experiment_stimuli/bw_bc_bl/Living_Things/Birds/hen_24.jpg,Birds,0,hen,0,59,59,38,234.738159393,V_nV,1,234.755534721,236.000768264,1,1,0.190642057569,236.211965867,2,0,0.43115149287,5,6.0,32,bw,99.7846874227,2019_jun_28_1608,008,256,20,5,mattin,Experiment_EEG_version,20,
Living_Things,../experiment_stimuli/bw_bc_bl/Living_Things/Animals/cat_18.jpg,Animals,0,cat,0,60,60,13,238.376041314,V_nV,1,238.393953099,239.628656228,1,1,0.671677150298,240.32089956,2,0,0.320909451344,5,6.0,32,bw,99.7846874227,2019_jun_28_1608,008,256,20,5,mattin,Experiment_EEG_version,20,
Nonliving_Things,../experiment_stimuli/bw_bc_bl/Nonliving_Things/Kitchen_Uten/cup_14.jpg,Kitchen_Uten,0,cup,0,61,61,22,242.374748281,V_nV,2,242.389151882,243.627380499,0,1,0.561448333901,244.20936512,2,0,0.120532382047,5,6.5,32,bw,99.7846874227,2019_jun_28_1608,008,256,20,5,mattin,Experiment_EEG_version,20,
Living_Things,../experiment_stimuli/bw_bc_bl/Living_Things/Animals/lioness_12.jpg,Animals,0,lioness,0,62,62,48,246.062776408,V_nV,1,246.110633172,247.345470657,1,1,0.270814632531,247.636825704,2,0,0.16061382764,5,6.0,32,bw,99.7846874227,2019_jun_28_1608,008,256,20,5,mattin,Experiment_EEG_version,20,
Nonliving_Things,../experiment_stimuli/bw_bc_bl/Nonliving_Things/Tools/axe_15.jpg,Tools,0,axe,0,63,63,3,249.530346426,V_nV,2,249.549855577,250.772923233,1,2,0.260791209876,251.054255471,1,1,0.120480747079,5,6.5,32,bw,99.7846874227,2019_jun_28_1608,008,256,20,5,mattin,Experiment_EEG_version,20,
Nonliving_Things,../experiment_stimuli/bw_bc_bl/Nonliving_Things/Buildings/palace_16.jpg,Buildings,0,palace,0,64,64,58,252.907670439,nV_V,1,252.928605387,254.180354081,0,2,0.601534027606,254.802450895,1,1,0.190476706019,5,6.0,32,bw,99.7846874227,2019_jun_28_1608,008,256,20,5,mattin,Experiment_EEG_version,20,
Living_Things,../experiment_stimuli/bw_bc_bl/Living_Things/Animals/zebra_25.jpg,Animals,0,zebra,0,65,65,95,256.725983298,nV_V,2,256.732521295,258.00868434,1,2,0.922230537864,258.961482358,3,0,0.170586942113,5,6.0,32,bw,99.7846874227,2019_jun_28_1608,008,256,20,5,mattin,Experiment_EEG_version,20,
Living_Things,../experiment_stimuli/bw_bc_bl/Living_Things/Birds/penguin_11.jpg,Birds,0,penguin,0,66,66,61,260.864994201,V_nV,1,260.883840115,262.127649447,0,2,0.160571327899,262.308791005,1,1,0.631591407466,5,7.0,32,bw,99.7846874227,2019_jun_28_1608,008,256,20,5,mattin,Experiment_EEG_version,20,
Nonliving_Things,../experiment_stimuli/bw_bc_bl/Nonliving_Things/Buildings/factory_4.jpg,Buildings,0,factory,0,67,67,28,264.673297946,V_nV,2,264.689549888,265.95598751,0,1,0.51135504886,266.487902556,2,0,0.120473540621,5,6.0,32,bw,99.7846874227,2019_jun_28_1608,008,256,20,5,mattin,Experiment_EEG_version,20,
Nonliving_Things,../experiment_stimuli/bw_bc_bl/Nonliving_Things/Furniture/Chest-of-drawers_16.jpg,Furniture,0,Chest-of-drawers,0,68,68,0,268.341305356,nV_V,1,268.353632385,269.593908924,1,1,0.491299241665,270.105770659,3,0,0.210674439906,5,6.0,32,bw,99.7846874227,2019_jun_28_1608,008,256,20,5,mattin,Experiment_EEG_version,20,
Nonliving_Things,../experiment_stimuli/bw_bc_bl/Nonliving_Things/Musical_Inst/trumpet_23.jpg,Musical_Inst,0,trumpet,0,69,69,88,272.049344862,V_nV,2,272.081651349,273.301983651,0,1,1.49347062374,274.826027541,2,0,0.521351407631,5,7.0,32,bw,99.7846874227,2019_jun_28_1608,008,256,20,5,mattin,Experiment_EEG_version,20,
Living_Things,../experiment_stimuli/bw_bc_bl/Living_Things/Insects/butterfly_11.jpg,Insects,0,butterfly,0,70,70,10,277.080305553,nV_V,2,277.102468329,278.322921202,0,1,0.190632177866,278.534113956,2,0,0.441178047098,5,6.5,32,bw,99.7846874227,2019_jun_28_1608,008,256,20,5,mattin,Experiment_EEG_version,20,
Nonliving_Things,../experiment_stimuli/bw_bc_bl/Nonliving_Things/Furniture/table_22.jpg,Furniture,0,table,0,71,71,81,280.708207596,V_nV,2,280.722532931,281.950817392,1,2,0.61155431089,282.58293782,2,0,0.421124431537,5,6.0,32,bw,99.7846874227,2019_jun_28_1608,008,256,20,5,mattin,Experiment_EEG_version,20,
Living_Things,../experiment_stimuli/bw_bc_bl/Living_Things/Birds/duck_12.jpg,Birds,0,duck,0,72,72,26,284.736976285,V_nV,1,284.75455919,285.989609409,1,1,0.431155921426,286.441310306,2,0,0.12052200234,5,6.5,32,bw,99.7846874227,2019_jun_28_1608,008,256,20,5,mattin,Experiment_EEG_version,20,
Nonliving_Things,../experiment_stimuli/bw_bc_bl/Nonliving_Things/Furniture/wardrobe_26.jpg,Furniture,0,wardrobe,0,73,73,93,288.294720924,nV_V,1,288.323417838,289.547359691,0,2,1.67385290819,291.241782856,2,0,0.541393128689,5,6.0,32,bw,99.7846874227,2019_jun_28_1608,008,256,20,5,mattin,Experiment_EEG_version,20,
Nonliving_Things,../experiment_stimuli/bw_bc_bl/Nonliving_Things/Kitchen_Uten/frying-pan_19.jpg,Kitchen_Uten,0,frying-pan,0,74,74,31,293.516098168,nV_V,1,293.528918703,294.748687823,0,2,0.661679355311,295.430941506,2,0,0.310750350007,5,6.0,32,bw,99.7846874227,2019_jun_28_1608,008,256,20,5,mattin,Experiment_EEG_version,20,
Nonliving_Things,../experiment_stimuli/bw_bc_bl/Nonliving_Things/Vehicles/van_25.jpg,Vehicles,0,van,0,75,75,91,297.474714151,nV_V,1,297.508547209,298.747405737,0,2,0.080395091325,298.848349213,2,0,0.230709521915,5,6.0,32,bw,99.7846874227,2019_jun_28_1608,008,256,20,5,mattin,Experiment_EEG_version,20,
Living_Things,../experiment_stimuli/bw_bc_bl/Living_Things/Birds/hummingbird_23.jpg,Birds,0,hummingbird,0,76,76,42,300.811991775,nV_V,2,300.822342916,302.054602571,1,2,0.401122116484,302.476284609,1,1,0.1004878229,5,7.5,32,bw,99.7846874227,2019_jun_28_1608,008,256,20,5,mattin,Experiment_EEG_version,20,
Nonliving_Things,../experiment_stimuli/bw_bc_bl/Nonliving_Things/Vehicles/motorbike_3.jpg,Vehicles,0,motorbike,0,77,77,54,304.309612729,nV_V,1,304.32314726,305.572255818,0,2,0.601550320629,306.194427086,2,0,0.170583445928,5,7.5,32,bw,99.7846874227,2019_jun_28_1608,008,256,20,5,mattin,Experiment_EEG_version,20,
Living_Things,../experiment_stimuli/bw_bc_bl/Living_Things/Animals/armadillo_18.jpg,Animals,0,armadillo,0,78,78,1,308.097843667,nV_V,2,308.12136758,309.350537287,1,2,0.711771117756,310.082802264,1,1,0.140545294853,5,6.0,32,bw,99.7846874227,2019_jun_28_1608,008,256,20,5,mattin,Experiment_EEG_version,20,
Living_Things,../experiment_stimuli/bw_bc_bl/Living_Things/Marine_creatures/pomfret_10.jpg,Marine_creatures,0,pomfret,0,79,79,65,311.956248825,nV_V,2,311.978266641,313.218904289,0,1,0.481273969868,313.720734918,1,1,0.200649720966,5,6.5,32,bw,99.7846874227,2019_jun_28_1608,008,256,20,5,mattin,Experiment_EEG_version,20,
Nonliving_Things,../experiment_stimuli/bw_bc_bl/Nonliving_Things/Musical_Inst/guitar_0.jpg,Musical_Inst,0,guitar,0,80,80,36,315.654305405,nV_V,1,315.671411939,316.947023027,1,1,0.872121350607,317.83971654,3,0,0.260801322991,5,6.0,32,bw,99.7846874227,2019_jun_28_1608,008,256,20,5,mattin,Experiment_EEG_version,20,
Nonliving_Things,../experiment_stimuli/bw_bc_bl/Nonliving_Things/Kitchen_Uten/small-saucepan_23.jpg,Kitchen_Uten,0,small-saucepan,0,81,81,77,319.833401723,nV_V,1,319.863449554,321.096055078,1,1,0.511342796846,321.627947214,2,0,0.250762655982,5,6.5,32,bw,99.7846874227,2019_jun_28_1608,008,256,20,5,mattin,Experiment_EEG_version,20,
Nonliving_Things,../experiment_stimuli/bw_bc_bl/Nonliving_Things/Buildings/cathedral_2.jpg,Buildings,0,cathedral,0,82,82,14,323.611627332,V_nV,2,323.625149841,324.84422707,1,2,0.140543956659,325.00532278,1,1,0.170590280439,5,6.5,32,bw,99.7846874227,2019_jun_28_1608,008,256,20,5,mattin,Experiment_EEG_version,20,
Living_Things,../experiment_stimuli/bw_bc_bl/Living_Things/Animals/horse_3.jpg,Animals,0,horse,0,83,83,40,326.918867117,V_nV,1,326.942673279,328.201529486,0,2,0.521373595344,328.743490458,1,1,0.371027119923,5,7.0,32,bw,99.7846874227,2019_jun_28_1608,008,256,20,5,mattin,Experiment_EEG_version,20,
Living_Things,../experiment_stimuli/bw_bc_bl/Living_Things/Birds/goose_26.jpg,Birds,0,goose,0,84,84,34,330.8473823,V_nV,1,330.875073589,332.150125927,1,1,0.491304606083,332.661995106,3,0,0.180603101617,5,7.0,32,bw,99.7846874227,2019_jun_28_1608,008,256,20,5,mattin,Experiment_EEG_version,20,
Nonliving_Things,../experiment_stimuli/bw_bc_bl/Nonliving_Things/Buildings/house_12.jpg,Buildings,0,house,0,85,85,41,334.575512218,V_nV,2,334.595228224,335.83816325,1,2,0.491289493511,336.350011865,2,0,0.210669707158,5,6.0,32,bw,99.7846874227,2019_jun_28_1608,008,256,20,5,mattin,Experiment_EEG_version,20,
Nonliving_Things,../experiment_stimuli/bw_bc_bl/Nonliving_Things/Vehicles/plane_19.jpg,Vehicles,0,plane,0,86,86,64,338.293605571,nV_V,1,338.30804369,339.556266478,0,2,0.601558320574,340.17837827,3,0,0.260780736688,5,6.0,32,bw,99.7846874227,2019_jun_28_1608,008,256,20,5,mattin,Experiment_EEG_version,20,
Living_Things,../experiment_stimuli/bw_bc_bl/Living_Things/Marine_creatures/shark_1.jpg,Marine_creatures,0,shark,0,87,87,75,342.172065273,V_nV,1,342.200370709,343.424680431,0,2,0.150557285058,343.595823529,2,0,2.89636713429,5,6.5,32,bw,99.7846874227,2019_jun_28_1608,008,256,20,5,mattin,Experiment_EEG_version,20,
Nonliving_Things,../experiment_stimuli/bw_bc_bl/Nonliving_Things/Furniture/bookcase_5.jpg,Furniture,0,bookcase,0,88,88,8,348.225230887,nV_V,1,348.237464507,349.457815407,0,2,0.340963213821,349.819362865,1,1,0.150543845142,5,7.5,32,bw,99.7846874227,2019_jun_28_1608,008,256,20,5,mattin,Experiment_EEG_version,20,
Living_Things,../experiment_stimuli/bw_bc_bl/Living_Things/Animals/cheetah_25.jpg,Animals,0,cheetah,0,89,89,16,351.702795917,V_nV,1,351.720897516,352.965455971,1,1,0.391071641468,353.37709102,2,0,0.14057320042,5,6.5,32,bw,99.7846874227,2019_jun_28_1608,008,256,20,5,mattin,Experiment_EEG_version,20,
Living_Things,../experiment_stimuli/bw_bc_bl/Living_Things/Birds/raven_2.jpg,Birds,0,raven,0,90,90,67,355.250526555,nV_V,2,355.283260755,356.523202569,1,2,0.651643966907,357.195422142,2,0,2.10480373795,5,6.0,32,bw,99.7846874227,2019_jun_28_1608,008,256,20,5,mattin,Experiment_EEG_version,20,
Living_Things,../experiment_stimuli/bw_bc_bl/Living_Things/Animals/turtle_7.jpg,Animals,0,turtle,0,91,91,90,361.033122101,nV_V,2,361.059458434,362.285747864,0,1,0.952298282529,363.258613561,2,0,0.180609210394,5,6.0,32,bw,99.7846874227,2019_jun_28_1608,008,256,20,5,mattin,Experiment_EEG_version,20,
Nonliving_Things,../experiment_stimuli/bw_bc_bl/Nonliving_Things/Furniture/sofa_16.jpg,Furniture,0,sofa,0,92,92,78,365.182161799,nV_V,1,365.197147344,366.424765015,0,2,0.25077365234,366.696093966,2,0,0.210681158118,5,6.0,32,bw,99.7846874227,2019_jun_28_1608,008,256,20,5,mattin,Experiment_EEG_version,20,
Nonliving_Things,../experiment_stimuli/bw_bc_bl/Nonliving_Things/Furniture/couch_20.jpg,Furniture,0,couch,0,93,93,19,368.639685721,V_nV,2,368.650436951,369.872280478,1,2,0.0503365760669,369.943184972,1,1,0.200659464812,5,7.5,32,bw,99.7846874227,2019_jun_28_1608,008,256,20,5,mattin,Experiment_EEG_version,20,
Living_Things,../experiment_stimuli/bw_bc_bl/Living_Things/Birds/owl_18.jpg,Birds,0,owl,0,94,94,57,371.876733534,V_nV,1,371.895504479,373.139391558,1,1,0.561443864251,373.721384871,2,0,0.150607867399,5,6.5,32,bw,99.7846874227,2019_jun_28_1608,008,256,20,5,mattin,Experiment_EEG_version,20,
Nonliving_Things,../experiment_stimuli/bw_bc_bl/Nonliving_Things/Musical_Inst/tuba_18.jpg,Musical_Inst,0,tuba,0,95,95,89,375.604845043,nV_V,1,375.633888039,376.877525655,0,2,0.852192210965,377.75029407,1,1,0.170652652159,5,6.0,32,bw,99.7846874227,2019_jun_28_1608,008,256,20,5,mattin,Experiment_EEG_version,20,
