category,probe_path,subcategory,fixation_duration,label,trials.thisRepN,trials.thisTrialN,trials.thisN,trials.thisIndex,image_onset_time,response_window,correctAns,probe_onset,discrim_resptime,response.corr,response.keys,response.rt,visible_resptime,visible.keys,visible.corr,visible.rt,probeFrames,jitter2,n_square,experiment_color,frameRate,date,session,image_size,premask_dur,probeFrames,participant,expName,postmask_dur,
Nonliving_Things,../experiment_stimuli/bw_bc_bl/Nonliving_Things/Kitchen_Uten/coking-pot_19.jpg,Kitchen_Uten,0,coking-pot,0,0,0,18,3.74940830958,V_nV,2,3.79110463616,5.05215070408,0,1,0.842072086642,5.92510925233,3,0,0.631796638714,5,6.0,32,bw,99.7840700656,2019_jun_28_1516,002,256,20,5,mattin,Experiment_EEG_version,20,
Living_Things,../experiment_stimuli/bw_bc_bl/Living_Things/Animals/zebra_2.jpg,Animals,0,zebra,0,1,1,95,8.28929211001,nV_V,2,8.31802156079,9.56196556787,1,2,1.21286564157,10.7953946167,2,0,0.801811928977,5,6.0,32,bw,99.7840700656,2019_jun_28_1516,002,256,20,5,mattin,Experiment_EEG_version,20,
Nonliving_Things,../experiment_stimuli/bw_bc_bl/Nonliving_Things/Furniture/lamp_16.jpg,Furniture,0,lamp,0,2,2,46,13.3302661787,V_nV,2,13.3513061557,14.5829058742,1,2,2.91659358621,17.5200659235,2,0,0.320919146994,5,6.0,32,bw,99.7840700656,2019_jun_28_1516,002,256,20,5,mattin,Experiment_EEG_version,20,
Living_Things,../experiment_stimuli/bw_bc_bl/Living_Things/Insects/butterfly_7.jpg,Insects,0,butterfly,0,3,3,10,19.5738604723,V_nV,1,19.5865857492,20.8064496465,1,1,2.12485761638,22.9518838427,1,1,0.401161191287,5,7.5,32,bw,99.7840700656,2019_jun_28_1516,002,256,20,5,mattin,Experiment_EEG_version,20,
Nonliving_Things,../experiment_stimuli/bw_bc_bl/Nonliving_Things/Vehicles/ship_20.jpg,Vehicles,0,ship,0,4,4,76,25.0858781883,nV_V,1,25.1134955793,26.3485167313,1,1,1.54360681481,27.9126799079,2,0,0.411132050096,5,6.0,32,bw,99.7840700656,2019_jun_28_1516,002,256,20,5,mattin,Experiment_EEG_version,20,
Living_Things,../experiment_stimuli/bw_bc_bl/Living_Things/Birds/rooster_0.jpg,Birds,0,rooster,0,5,5,70,30.05669539,nV_V,2,30.0866429892,31.3093184541,0,1,1.33311813942,32.6629963613,1,1,0.230564045953,5,7.5,32,bw,99.7840700656,2019_jun_28_1516,002,256,20,5,mattin,Experiment_EEG_version,20,
Living_Things,../experiment_stimuli/bw_bc_bl/Living_Things/Animals/lioness_6.jpg,Animals,0,lioness,0,6,6,48,34.6266331418,V_nV,1,34.6475059252,35.8792857019,1,1,1.99456355348,37.8944014747,2,0,0.681699358393,5,6.0,32,bw,99.7840700656,2019_jun_28_1516,002,256,20,5,mattin,Experiment_EEG_version,20,
Nonliving_Things,../experiment_stimuli/bw_bc_bl/Nonliving_Things/Buildings/factory_19.jpg,Buildings,0,factory,0,7,7,28,40.3090072344,nV_V,1,40.3428152212,41.5716754579,1,1,1.39325553854,42.9854893356,1,1,0.250760569703,5,7.0,32,bw,99.7840700656,2019_jun_28_1516,002,256,20,5,mattin,Experiment_EEG_version,20,
Living_Things,../experiment_stimuli/bw_bc_bl/Living_Things/Birds/partridge_8.jpg,Birds,0,partridge,0,8,8,59,44.9691576828,V_nV,1,45.0017912837,46.2418315468,0,2,4.46995465283,50.7323400318,3,0,1.14270763227,5,6.5,32,bw,99.7840700656,2019_jun_28_1516,002,256,20,5,mattin,Experiment_EEG_version,20,
Nonliving_Things,../experiment_stimuli/bw_bc_bl/Nonliving_Things/Kitchen_Uten/teapot_14.jpg,Kitchen_Uten,0,teapot,0,9,9,83,53.6079667645,nV_V,1,53.6331529339,54.8606003172,0,2,1.63378360518,56.5149529311,2,0,0.432077949401,5,6.0,32,bw,99.7840700656,2019_jun_28_1516,002,256,20,5,mattin,Experiment_EEG_version,20,
Living_Things,../experiment_stimuli/bw_bc_bl/Living_Things/Animals/giraffe_13.jpg,Animals,0,giraffe,0,10,10,32,58.6790120475,nV_V,2,58.6925011658,59.9115980451,1,2,1.19282202981,61.1249853389,3,0,0.731809688383,5,8.0,32,bw,99.7840700656,2019_jun_28_1516,002,256,20,5,mattin,Experiment_EEG_version,20,
Living_Things,../experiment_stimuli/bw_bc_bl/Living_Things/Marine_creatures/shark_21.jpg,Marine_creatures,0,shark,0,11,11,75,63.5897113386,nV_V,2,63.6204278847,64.8423373691,1,2,2.01460758992,66.8775066555,2,0,0.290851871949,5,6.5,32,bw,99.7840700656,2019_jun_28_1516,002,256,20,5,mattin,Experiment_EEG_version,20,
Living_Things,../experiment_stimuli/bw_bc_bl/Living_Things/Marine_creatures/pomfret_14.jpg,Marine_creatures,0,pomfret,0,12,12,65,68.9012773766,nV_V,2,68.9066919199,70.1338561223,0,1,0.992218677304,71.1466515483,1,1,0.260781822959,5,8.0,32,bw,99.7840700656,2019_jun_28_1516,002,256,20,5,mattin,Experiment_EEG_version,20,
Nonliving_Things,../experiment_stimuli/bw_bc_bl/Nonliving_Things/Musical_Inst/drum_3.jpg,Musical_Inst,0,drum,0,13,13,25,73.1405011507,V_nV,2,73.1667491394,74.4131710146,0,1,1.56362354325,75.9973602958,3,0,1.32323312177,5,6.5,32,bw,99.7840700656,2019_jun_28_1516,002,256,20,5,mattin,Experiment_EEG_version,20,
Nonliving_Things,../experiment_stimuli/bw_bc_bl/Nonliving_Things/Tools/axe_21.jpg,Tools,0,axe,0,14,14,3,79.0533767074,nV_V,1,79.0846309169,80.3060085123,0,2,1.3932700383,81.7198542618,3,0,0.461219313089,5,6.5,32,bw,99.7840700656,2019_jun_28_1516,002,256,20,5,mattin,Experiment_EEG_version,20,
Living_Things,../experiment_stimuli/bw_bc_bl/Living_Things/Marine_creatures/manatee_25.jpg,Marine_creatures,0,manatee,0,15,15,52,83.913959221,nV_V,2,83.9405039849,85.1665923718,1,2,1.51352508878,86.7006801607,2,0,0.481262638816,5,7.0,32,bw,99.7840700656,2019_jun_28_1516,002,256,20,5,mattin,Experiment_EEG_version,20,
Living_Things,../experiment_stimuli/bw_bc_bl/Living_Things/Marine_creatures/whale_16.jpg,Marine_creatures,0,whale,0,16,16,94,88.9148518405,V_nV,1,88.9379784567,90.1574577903,0,2,1.59353514679,91.7715631411,1,1,0.350977376453,5,6.5,32,bw,99.7840700656,2019_jun_28_1516,002,256,20,5,mattin,Experiment_EEG_version,20,
Nonliving_Things,../experiment_stimuli/bw_bc_bl/Nonliving_Things/Kitchen_Uten/saucepan_17.jpg,Kitchen_Uten,0,saucepan,0,17,17,71,93.8556135831,nV_V,1,93.8787364361,95.1082419255,0,2,1.43334749888,96.562160617,3,0,0.290849586367,5,6.5,32,bw,99.7840700656,2019_jun_28_1516,002,256,20,5,mattin,Experiment_EEG_version,20,
Living_Things,../experiment_stimuli/bw_bc_bl/Living_Things/Marine_creatures/sperm-whale_3.jpg,Marine_creatures,0,sperm-whale,0,18,18,80,98.5859161577,V_nV,1,98.6141604293,99.838547451,0,2,1.06254033512,100.921653727,1,1,0.36086209002,5,6.0,32,bw,99.7840700656,2019_jun_28_1516,002,256,20,5,mattin,Experiment_EEG_version,20,
Living_Things,../experiment_stimuli/bw_bc_bl/Living_Things/Animals/elephant_4.jpg,Animals,0,elephant,0,19,19,27,103.015555112,nV_V,2,103.031271706,104.268194075,1,2,1.61373909877,105.902491821,3,0,0.53137528128,5,6.0,32,bw,99.7840700656,2019_jun_28_1516,002,256,20,5,mattin,Experiment_EEG_version,20,
Nonliving_Things,../experiment_stimuli/bw_bc_bl/Nonliving_Things/Kitchen_Uten/cup_10.jpg,Kitchen_Uten,0,cup,0,20,20,22,108.166773233,nV_V,1,108.195049084,109.41940273,0,2,1.23290402791,110.672874548,2,0,0.290848744218,5,7.5,32,bw,99.7840700656,2019_jun_28_1516,002,256,20,5,mattin,Experiment_EEG_version,20,
Nonliving_Things,../experiment_stimuli/bw_bc_bl/Nonliving_Things/Musical_Inst/saxophone_15.jpg,Musical_Inst,0,saxophone,0,21,21,72,112.696642495,nV_V,1,112.724159481,113.949265683,1,1,1.35301551968,115.332892351,1,1,0.411120039178,5,7.5,32,bw,99.7840700656,2019_jun_28_1516,002,256,20,5,mattin,Experiment_EEG_version,20,
Nonliving_Things,../experiment_stimuli/bw_bc_bl/Nonliving_Things/Furniture/Chest-of-drawers_4.jpg,Furniture,0,Chest-of-drawers,0,22,22,0,117.477064681,nV_V,1,117.50596907,118.749720384,0,2,1.23292462912,120.003230172,3,0,0.621569086565,5,6.0,32,bw,99.7840700656,2019_jun_28_1516,002,256,20,5,mattin,Experiment_EEG_version,20,
Nonliving_Things,../experiment_stimuli/bw_bc_bl/Nonliving_Things/Buildings/mill_11.jpg,Buildings,0,mill,0,23,23,53,122.357672867,nV_V,1,122.381085029,123.600298238,0,2,2.28521719854,125.906069889,1,1,0.431151376455,5,6.5,32,bw,99.7840700656,2019_jun_28_1516,002,256,20,5,mattin,Experiment_EEG_version,20,
Nonliving_Things,../experiment_stimuli/bw_bc_bl/Nonliving_Things/Furniture/filling-cabinet_4.jpg,Furniture,0,filling-cabinet,0,24,24,29,128.070120471,V_nV,2,128.075487248,129.312735598,1,2,2.50576838199,131.839059605,2,0,0.25075507001,5,7.0,32,bw,99.7840700656,2019_jun_28_1516,002,256,20,5,mattin,Experiment_EEG_version,20,
Living_Things,../experiment_stimuli/bw_bc_bl/Living_Things/Animals/lynx_9.jpg,Animals,0,lynx,0,25,25,50,133.822643604,nV_V,2,133.846378702,135.075268356,0,1,1.82419795892,136.920030612,2,0,1.09259716643,5,7.5,32,bw,99.7840700656,2019_jun_28_1516,002,256,20,5,mattin,Experiment_EEG_version,20,
Living_Things,../experiment_stimuli/bw_bc_bl/Living_Things/Birds/duck_3.jpg,Birds,0,duck,0,26,26,26,139.745548688,V_nV,1,139.780605417,141.008193562,0,2,2.80635118391,143.845144052,1,1,0.541396605899,5,6.5,32,bw,99.7840700656,2019_jun_28_1516,002,256,20,5,mattin,Experiment_EEG_version,20,
Living_Things,../experiment_stimuli/bw_bc_bl/Living_Things/Birds/pelican_25.jpg,Birds,0,pelican,0,27,27,60,146.119416428,nV_V,2,146.143366754,147.392102867,0,1,2.60589520517,150.01855234,2,0,0.220741651487,5,7.5,32,bw,99.7840700656,2019_jun_28_1516,002,256,20,5,mattin,Experiment_EEG_version,20,
Living_Things,../experiment_stimuli/bw_bc_bl/Living_Things/Insects/ladybird_1.jpg,Insects,0,ladybird,0,28,28,45,151.972181349,nV_V,2,152.005338804,153.2348282,1,2,1.0124221294,154.267812819,2,0,0.451037847088,5,6.0,32,bw,99.7840700656,2019_jun_28_1516,002,256,20,5,mattin,Experiment_EEG_version,20,
Nonliving_Things,../experiment_stimuli/bw_bc_bl/Nonliving_Things/Buildings/palace_5.jpg,Buildings,0,palace,0,29,29,58,156.451921359,nV_V,1,156.48559402,157.714569391,0,2,1.35326122749,159.088390597,2,0,0.330936332582,5,7.0,32,bw,99.7840700656,2019_jun_28_1516,002,256,20,5,mattin,Experiment_EEG_version,20,
Nonliving_Things,../experiment_stimuli/bw_bc_bl/Nonliving_Things/Furniture/couch_5.jpg,Furniture,0,couch,0,30,30,19,161.152153497,V_nV,2,161.171410151,162.394764492,1,2,1.53356883198,163.948906103,2,0,0.340951803955,5,6.5,32,bw,99.7840700656,2019_jun_28_1516,002,256,20,5,mattin,Experiment_EEG_version,20,
Nonliving_Things,../experiment_stimuli/bw_bc_bl/Nonliving_Things/Musical_Inst/tuba_8.jpg,Musical_Inst,0,tuba,0,31,31,89,166.022766839,nV_V,1,166.046697736,167.275393689,0,2,1.76406551455,169.06002114,2,0,0.29086190986,5,6.0,32,bw,99.7840700656,2019_jun_28_1516,002,256,20,5,mattin,Experiment_EEG_version,20,
Nonliving_Things,../experiment_stimuli/bw_bc_bl/Nonliving_Things/Furniture/bedside-table_20.jpg,Furniture,0,bedside-table,0,32,32,6,171.083802064,V_nV,2,171.108205381,172.336417272,1,2,0.561453920323,172.918418257,1,1,0.96230361471,5,7.5,32,bw,99.7840700656,2019_jun_28_1516,002,256,20,5,mattin,Experiment_EEG_version,20,
Living_Things,../experiment_stimuli/bw_bc_bl/Living_Things/Marine_creatures/crab_5.jpg,Marine_creatures,0,crab,0,33,33,21,175.613654582,V_nV,1,175.641125038,176.896349808,1,1,1.20283828315,178.11973578,3,0,0.26091947197,5,6.0,32,bw,99.7840700656,2019_jun_28_1516,002,256,20,5,mattin,Experiment_EEG_version,20,
Nonliving_Things,../experiment_stimuli/bw_bc_bl/Nonliving_Things/Buildings/cathedral_13.jpg,Buildings,0,cathedral,0,34,34,14,180.113442643,nV_V,1,180.130611775,181.356057097,1,1,1.73402093106,183.110626796,2,0,0.841892949655,5,7.5,32,bw,99.7840700656,2019_jun_28_1516,002,256,20,5,mattin,Experiment_EEG_version,20,
Living_Things,../experiment_stimuli/bw_bc_bl/Living_Things/Birds/seagull_3.jpg,Birds,0,seagull,0,35,35,74,185.685577022,V_nV,1,185.710222076,186.93820889,0,2,2.6359570818,189.594720939,1,1,2.27516684786,5,6.0,32,bw,99.7840700656,2019_jun_28_1516,002,256,20,5,mattin,Experiment_EEG_version,20,
Living_Things,../experiment_stimuli/bw_bc_bl/Living_Things/Animals/rhino_3.jpg,Animals,0,rhino,0,36,36,68,193.602824218,nV_V,2,193.644983837,194.875494988,0,1,2.55578702909,197.452861669,1,1,0.811982289772,5,6.0,32,bw,99.7840700656,2019_jun_28_1516,002,256,20,5,mattin,Experiment_EEG_version,20,
Living_Things,../experiment_stimuli/bw_bc_bl/Living_Things/Animals/horse_26.jpg,Animals,0,horse,0,37,37,40,199.996739518,nV_V,2,200.028279912,201.289461339,1,2,2.73618743732,204.046213394,3,0,0.340955841471,5,7.5,32,bw,99.7840700656,2019_jun_28_1516,002,256,20,5,mattin,Experiment_EEG_version,20,
Nonliving_Things,../experiment_stimuli/bw_bc_bl/Nonliving_Things/Furniture/wardrobe_17.jpg,Furniture,0,wardrobe,0,38,38,93,206.120078615,nV_V,1,206.151470187,207.382738447,1,1,3.91878900945,211.322090517,3,0,0.471239615115,5,6.5,32,bw,99.7840700656,2019_jun_28_1516,002,256,20,5,mattin,Experiment_EEG_version,20,
Living_Things,../experiment_stimuli/bw_bc_bl/Living_Things/Animals/cow_25.jpg,Animals,0,cow,0,39,39,20,213.526204654,V_nV,1,213.550294711,214.778836865,0,2,2.22511742311,217.024513902,1,1,0.240736203734,5,6.0,32,bw,99.7840700656,2019_jun_28_1516,002,256,20,5,mattin,Experiment_EEG_version,20,
Living_Things,../experiment_stimuli/bw_bc_bl/Living_Things/Birds/owl_17.jpg,Birds,0,owl,0,40,40,57,218.998121632,V_nV,1,219.033235097,220.280834846,1,1,2.43536564591,222.736735479,2,0,0.350981278694,5,6.5,32,bw,99.7840700656,2019_jun_28_1516,002,256,20,5,mattin,Experiment_EEG_version,20,
Living_Things,../experiment_stimuli/bw_bc_bl/Living_Things/Birds/penguin_25.jpg,Birds,0,penguin,0,41,41,61,224.820807597,V_nV,1,224.826206543,226.063414047,0,2,3.00676872279,229.090747083,2,0,0.641607709927,5,6.0,32,bw,99.7840700656,2019_jun_28_1516,002,256,20,5,mattin,Experiment_EEG_version,20,
Living_Things,../experiment_stimuli/bw_bc_bl/Living_Things/Marine_creatures/narwhal_5.jpg,Marine_creatures,0,narwhal,0,42,42,55,231.465273036,nV_V,2,231.500319239,232.727920741,1,2,1.03246403404,233.780947389,2,0,0.841892844299,5,8.0,32,bw,99.7840700656,2019_jun_28_1516,002,256,20,5,mattin,Experiment_EEG_version,20,
Nonliving_Things,../experiment_stimuli/bw_bc_bl/Nonliving_Things/Furniture/armchair_4.jpg,Furniture,0,armchair,0,43,43,2,236.355915964,V_nV,2,236.382331315,237.608553118,1,2,2.72615848482,240.355277683,1,1,1.15272187407,5,6.0,32,bw,99.7840700656,2019_jun_28_1516,002,256,20,5,mattin,Experiment_EEG_version,20,
Living_Things,../experiment_stimuli/bw_bc_bl/Living_Things/Animals/cheetah_18.jpg,Animals,0,cheetah,0,44,44,16,243.240912966,nV_V,2,243.26954758,244.503566501,0,1,2.03465796111,246.558803809,2,0,0.210767446435,5,6.5,32,bw,99.7840700656,2019_jun_28_1516,002,256,20,5,mattin,Experiment_EEG_version,20,
Living_Things,../experiment_stimuli/bw_bc_bl/Living_Things/Birds/hummingbird_13.jpg,Birds,0,hummingbird,0,45,45,42,248.502397486,nV_V,2,248.535549441,249.755017302,0,1,1.55362953397,251.329203363,1,1,0.381041301764,5,6.0,32,bw,99.7840700656,2019_jun_28_1516,002,256,20,5,mattin,Experiment_EEG_version,20,
Living_Things,../experiment_stimuli/bw_bc_bl/Living_Things/Marine_creatures/dolphin_17.jpg,Marine_creatures,0,dolphin,0,46,46,23,253.443130706,nV_V,2,253.469474566,254.725828868,1,2,5.59239554789,260.338789601,2,0,0.310889209621,5,7.0,32,bw,99.7840700656,2019_jun_28_1516,002,256,20,5,mattin,Experiment_EEG_version,20,
Living_Things,../experiment_stimuli/bw_bc_bl/Living_Things/Animals/cat_11.jpg,Animals,0,cat,0,47,47,13,262.382599276,nV_V,2,262.403096259,263.645252605,1,2,2.14488862304,265.810705293,3,0,0.280671755783,5,6.0,32,bw,99.7840700656,2019_jun_28_1516,002,256,20,5,mattin,Experiment_EEG_version,20,
Nonliving_Things,../experiment_stimuli/bw_bc_bl/Nonliving_Things/Furniture/lectern_26.jpg,Furniture,0,lectern,0,48,48,47,267.824449591,nV_V,1,267.854907933,269.077095625,1,1,1.44336425606,270.541013341,2,0,0.401083894889,5,7.0,32,bw,99.7840700656,2019_jun_28_1516,002,256,20,5,mattin,Experiment_EEG_version,20,
Nonliving_Things,../experiment_stimuli/bw_bc_bl/Nonliving_Things/Vehicles/tractor_15.jpg,Vehicles,0,tractor,0,49,49,86,272.675041554,nV_V,1,272.697286571,273.917617971,1,1,0.591504379525,274.52970928,1,1,0.230717288679,5,6.0,32,bw,99.7840700656,2019_jun_28_1516,002,256,20,5,mattin,Experiment_EEG_version,20,
Nonliving_Things,../experiment_stimuli/bw_bc_bl/Nonliving_Things/Kitchen_Uten/fondue_1.jpg,Kitchen_Uten,0,fondue,0,50,50,30,276.49332929,nV_V,1,276.517901229,277.755990126,0,2,1.87430048082,279.650866991,2,0,0.230742269545,5,6.5,32,bw,99.7840700656,2019_jun_28_1516,002,256,20,5,mattin,Experiment_EEG_version,20,
Living_Things,../experiment_stimuli/bw_bc_bl/Living_Things/Birds/kiwi_23.jpg,Birds,0,kiwi,0,51,51,44,281.614475576,nV_V,2,281.645095217,282.86711549,0,1,0.862118194578,283.749804422,2,0,0.340801113867,5,6.5,32,bw,99.7840700656,2019_jun_28_1516,002,256,20,5,mattin,Experiment_EEG_version,20,
Living_Things,../experiment_stimuli/bw_bc_bl/Living_Things/Animals/turtle_9.jpg,Animals,0,turtle,0,52,52,90,285.823645763,nV_V,2,285.844756811,287.066259405,0,1,1.58366439561,288.670487471,2,0,0.18062612752,5,6.5,32,bw,99.7840700656,2019_jun_28_1516,002,256,20,5,mattin,Experiment_EEG_version,20,
Nonliving_Things,../experiment_stimuli/bw_bc_bl/Nonliving_Things/Musical_Inst/violin_7.jpg,Musical_Inst,0,violin,0,53,53,92,290.584012624,V_nV,2,290.604495986,291.826632796,1,2,3.45774561178,295.304925859,1,1,0.230713469209,5,6.0,32,bw,99.7840700656,2019_jun_28_1516,002,256,20,5,mattin,Experiment_EEG_version,20,
Nonliving_Things,../experiment_stimuli/bw_bc_bl/Nonliving_Things/Vehicles/van_0.jpg,Vehicles,0,van,0,54,54,91,297.268579704,V_nV,2,297.30059339,298.531225713,1,2,1.04249067826,299.604305424,1,1,0.260783499572,5,6.0,32,bw,99.7840700656,2019_jun_28_1516,002,256,20,5,mattin,Experiment_EEG_version,20,
Living_Things,../experiment_stimuli/bw_bc_bl/Living_Things/Animals/tiger_13.jpg,Animals,0,tiger,0,55,55,84,301.598000817,V_nV,1,301.615015935,302.870674433,1,1,2.54576584743,305.43700156,3,0,0.210668582935,5,6.0,32,bw,99.7840700656,2019_jun_28_1516,002,256,20,5,mattin,Experiment_EEG_version,20,
Nonliving_Things,../experiment_stimuli/bw_bc_bl/Nonliving_Things/Vehicles/train_6.jpg,Vehicles,0,train,0,56,56,87,307.380595378,V_nV,2,307.398419119,308.623201193,1,2,1.36318883905,310.006941936,1,1,0.501336750458,5,6.0,32,bw,99.7840700656,2019_jun_28_1516,002,256,20,5,mattin,Experiment_EEG_version,20,
Living_Things,../experiment_stimuli/bw_bc_bl/Living_Things/Birds/hen_8.jpg,Birds,0,hen,0,57,57,38,312.24117287,V_nV,1,312.263688722,313.493804577,0,2,2.6961181534,316.210498126,2,0,0.361000934499,5,6.0,32,bw,99.7840700656,2019_jun_28_1516,002,256,20,5,mattin,Experiment_EEG_version,20,
Nonliving_Things,../experiment_stimuli/bw_bc_bl/Nonliving_Things/Furniture/sofa_20.jpg,Furniture,0,sofa,0,58,58,78,318.304377308,nV_V,1,318.320156969,319.546989574,1,1,1.60371593223,321.171253507,1,1,0.120470732567,5,6.5,32,bw,99.7840700656,2019_jun_28_1516,002,256,20,5,mattin,Experiment_EEG_version,20,
Living_Things,../experiment_stimuli/bw_bc_bl/Living_Things/Birds/ostrich_3.jpg,Birds,0,ostrich,0,59,59,56,323.024655171,V_nV,1,323.044761244,324.28730868,0,2,2.62595607992,326.933860181,2,0,0.621576083009,5,6.0,32,bw,99.7840700656,2019_jun_28_1516,002,256,20,5,mattin,Experiment_EEG_version,20,
Nonliving_Things,../experiment_stimuli/bw_bc_bl/Nonliving_Things/Buildings/granary_12.jpg,Buildings,0,granary,0,60,60,35,329.288294561,V_nV,2,329.327551579,330.560987587,1,2,3.81853753352,334.400073264,1,1,0.731811688398,5,6.0,32,bw,99.7840700656,2019_jun_28_1516,002,256,20,5,mattin,Experiment_EEG_version,20,
Living_Things,../experiment_stimuli/bw_bc_bl/Living_Things/Insects/dragonfly_3.jpg,Insects,0,dragonfly,0,61,61,24,336.864791132,nV_V,2,336.88375215,338.137486661,1,2,1.05251418706,339.210546342,2,0,2.91656428576,5,7.5,32,bw,99.7840700656,2019_jun_28_1516,002,256,20,5,mattin,Experiment_EEG_version,20,
Living_Things,../experiment_stimuli/bw_bc_bl/Living_Things/Birds/pigeon_24.jpg,Birds,0,pigeon,0,62,62,63,343.860028187,V_nV,1,343.882554381,345.122681794,1,1,1.35318280722,346.506456122,3,0,0.16054937325,5,6.5,32,bw,99.7840700656,2019_jun_28_1516,002,256,20,5,mattin,Experiment_EEG_version,20,
Living_Things,../experiment_stimuli/bw_bc_bl/Living_Things/Birds/magpie_23.jpg,Birds,0,magpie,0,63,63,51,348.399911645,nV_V,2,348.426432601,349.662569162,0,1,1.39325888804,351.076400965,2,0,0.240740124485,5,6.5,32,bw,99.7840700656,2019_jun_28_1516,002,256,20,5,mattin,Experiment_EEG_version,20,
Living_Things,../experiment_stimuli/bw_bc_bl/Living_Things/Animals/armadillo_1.jpg,Animals,0,armadillo,0,64,64,1,353.05004175,nV_V,2,353.077529203,354.302673206,0,1,1.08241477958,355.405676181,2,0,0.431162248598,5,6.5,32,bw,99.7840700656,2019_jun_28_1516,002,256,20,5,mattin,Experiment_EEG_version,20,
Living_Things,../experiment_stimuli/bw_bc_bl/Living_Things/Insects/scorpion_1.jpg,Insects,0,scorpion,0,65,65,73,357.569888676,nV_V,2,357.605614724,358.842562393,0,1,1.06253001571,359.935683016,2,0,0.190627272124,5,7.5,32,bw,99.7840700656,2019_jun_28_1516,002,256,20,5,mattin,Experiment_EEG_version,20,
Living_Things,../experiment_stimuli/bw_bc_bl/Living_Things/Birds/sparrow_23.jpg,Birds,0,sparrow,0,66,66,79,361.859233784,V_nV,1,361.877748077,363.111855468,1,1,1.53357180196,364.666011162,2,0,0.391066886135,5,6.5,32,bw,99.7840700656,2019_jun_28_1516,002,256,20,5,mattin,Experiment_EEG_version,20,
Living_Things,../experiment_stimuli/bw_bc_bl/Living_Things/Animals/hippopotamus_21.jpg,Animals,0,hippopotamus,0,67,67,39,366.789969822,nV_V,2,366.828203671,368.052617083,1,2,2.10480381304,370.177970457,1,1,0.581475070096,5,6.5,32,bw,99.7840700656,2019_jun_28_1516,002,256,20,5,mattin,Experiment_EEG_version,20,
Nonliving_Things,../experiment_stimuli/bw_bc_bl/Nonliving_Things/Vehicles/plane_10.jpg,Vehicles,0,plane,0,68,68,64,372.492393192,V_nV,2,372.527444563,373.785105769,1,2,3.84859959758,377.654254849,2,0,0.350979711278,5,7.0,32,bw,99.7840700656,2019_jun_28_1516,002,256,20,5,mattin,Experiment_EEG_version,20,
Nonliving_Things,../experiment_stimuli/bw_bc_bl/Nonliving_Things/Vehicles/motorbike_12.jpg,Vehicles,0,motorbike,0,69,69,54,379.73816006,nV_V,1,379.762148749,381.010845333,1,1,1.12266511424,382.154072283,2,0,0.411110291025,5,6.5,32,bw,99.7840700656,2019_jun_28_1516,002,256,20,5,mattin,Experiment_EEG_version,20,
Nonliving_Things,../experiment_stimuli/bw_bc_bl/Nonliving_Things/Furniture/bookcase_16.jpg,Furniture,0,bookcase,0,70,70,8,384.298097513,V_nV,2,384.315575302,385.550736626,1,2,1.06253496709,386.633803632,1,1,0.621571184718,5,7.5,32,bw,99.7840700656,2019_jun_28_1516,002,256,20,5,mattin,Experiment_EEG_version,20,
Nonliving_Things,../experiment_stimuli/bw_bc_bl/Nonliving_Things/Musical_Inst/guitar_1.jpg,Musical_Inst,0,guitar,0,71,71,36,388.988306668,V_nV,2,389.049820527,390.301065,1,2,2.70610858349,393.027745886,3,0,0.270842154976,5,7.5,32,bw,99.7840700656,2019_jun_28_1516,002,256,20,5,mattin,Experiment_EEG_version,20,
Nonliving_Things,../experiment_stimuli/bw_bc_bl/Nonliving_Things/Kitchen_Uten/pot_12.jpg,Kitchen_Uten,0,pot,0,72,72,66,395.031460923,V_nV,2,395.046391147,396.284099394,1,2,5.20155096764,401.506195893,1,1,0.330956046586,5,6.0,32,bw,99.7840700656,2019_jun_28_1516,002,256,20,5,mattin,Experiment_EEG_version,20,
Nonliving_Things,../experiment_stimuli/bw_bc_bl/Nonliving_Things/Buildings/church_13.jpg,Buildings,0,church,0,73,73,17,403.570055243,nV_V,1,403.601412004,404.842736272,0,2,1.83421818959,406.697518064,2,0,0.210675376235,5,6.5,32,bw,99.7840700656,2019_jun_28_1516,002,256,20,5,mattin,Experiment_EEG_version,20,
Nonliving_Things,../experiment_stimuli/bw_bc_bl/Nonliving_Things/Vehicles/car_24.jpg,Vehicles,0,car,0,74,74,11,408.64111394,nV_V,1,408.660111442,409.893738004,0,2,2.0446705753,411.958958069,1,1,0.360994521063,5,7.5,32,bw,99.7840700656,2019_jun_28_1516,002,256,20,5,mattin,Experiment_EEG_version,20,
Nonliving_Things,../experiment_stimuli/bw_bc_bl/Nonliving_Things/Musical_Inst/piano__18.jpg,Musical_Inst,0,piano,0,75,75,62,414.052884619,nV_V,1,414.086392944,415.365648684,1,1,1.34316478344,416.729372044,3,0,0.210675026407,5,6.5,32,bw,99.7840700656,2019_jun_28_1516,002,256,20,5,mattin,Experiment_EEG_version,20,
Living_Things,../experiment_stimuli/bw_bc_bl/Living_Things/Birds/barn-owl_4.jpg,Birds,0,barn-owl,0,76,76,4,418.672959348,nV_V,2,418.703454197,419.945622994,1,2,1.48345021287,421.459651776,3,0,0.230714063277,5,6.0,32,bw,99.7840700656,2019_jun_28_1516,002,256,20,5,mattin,Experiment_EEG_version,20,
Living_Things,../experiment_stimuli/bw_bc_bl/Living_Things/Birds/goose_0.jpg,Birds,0,goose,0,77,77,34,423.42329308,V_nV,1,423.443052461,424.675923433,1,1,1.20283764403,425.899332803,2,0,0.250605586451,5,8.0,32,bw,99.7840700656,2019_jun_28_1516,002,256,20,5,mattin,Experiment_EEG_version,20,
Nonliving_Things,../experiment_stimuli/bw_bc_bl/Nonliving_Things/Furniture/chair_9.jpg,Furniture,0,chair,0,78,78,15,427.89303987,V_nV,2,427.916779344,429.155679338,1,2,1.02244716813,430.198682643,2,0,1.32310772059,5,6.5,32,bw,99.7840700656,2019_jun_28_1516,002,256,20,5,mattin,Experiment_EEG_version,20,
Living_Things,../experiment_stimuli/bw_bc_bl/Living_Things/Birds/goldfinch_7.jpg,Birds,0,goldfinch,0,79,79,33,433.25469731,V_nV,1,433.277225312,434.497319185,1,1,1.27300258598,435.790880508,1,1,0.26078602951,5,6.0,32,bw,99.7840700656,2019_jun_28_1516,002,256,20,5,mattin,Experiment_EEG_version,20,
Living_Things,../experiment_stimuli/bw_bc_bl/Living_Things/Marine_creatures/lobster_14.jpg,Marine_creatures,0,lobster,0,80,80,49,437.784581157,V_nV,1,437.817681764,439.047223242,0,2,0.751889198087,439.819686565,1,1,0.290865571122,5,6.0,32,bw,99.7840700656,2019_jun_28_1516,002,256,20,5,mattin,Experiment_EEG_version,20,
Nonliving_Things,../experiment_stimuli/bw_bc_bl/Nonliving_Things/Buildings/house_24.jpg,Buildings,0,house,0,81,81,41,441.843406839,nV_V,1,441.878398027,443.136136161,1,1,1.38323189435,444.539923699,2,0,0.290859014727,5,7.5,32,bw,99.7840700656,2019_jun_28_1516,002,256,20,5,mattin,Experiment_EEG_version,20,
Living_Things,../experiment_stimuli/bw_bc_bl/Living_Things/Marine_creatures/killer-whale_13.jpg,Marine_creatures,0,killer-whale,0,82,82,43,446.563684965,nV_V,2,446.587270877,447.826344016,1,2,2.98672276526,450.833628255,1,1,0.230707386625,5,6.5,32,bw,99.7840700656,2019_jun_28_1516,002,256,20,5,mattin,Experiment_EEG_version,20,
Nonliving_Things,../experiment_stimuli/bw_bc_bl/Nonliving_Things/Kitchen_Uten/frying-pan_4.jpg,Kitchen_Uten,0,frying-pan,0,83,83,31,452.807321394,V_nV,2,452.824481664,454.089980477,1,2,2.61591981933,456.726457587,3,0,0.42112779594,5,6.5,32,bw,99.7840700656,2019_jun_28_1516,002,256,20,5,mattin,Experiment_EEG_version,20,
Nonliving_Things,../experiment_stimuli/bw_bc_bl/Nonliving_Things/Tools/hammer_23.jpg,Tools,0,hammer,0,84,84,37,458.880505939,V_nV,2,458.894071109,460.123114889,1,2,1.17279158731,461.316494383,2,0,0.280824607587,5,6.0,32,bw,99.7840700656,2019_jun_28_1516,002,256,20,5,mattin,Experiment_EEG_version,20,
Nonliving_Things,../experiment_stimuli/bw_bc_bl/Nonliving_Things/Musical_Inst/trumpet_18.jpg,Musical_Inst,0,trumpet,0,85,85,88,463.340218586,nV_V,1,463.36755886,464.592853138,1,1,1.25295483868,465.866354095,1,1,0.180611898191,5,6.5,32,bw,99.7840700656,2019_jun_28_1516,002,256,20,5,mattin,Experiment_EEG_version,20,
Living_Things,../experiment_stimuli/bw_bc_bl/Living_Things/Birds/toucan_3.jpg,Birds,0,toucan,0,86,86,85,467.779896049,V_nV,1,467.800766528,469.062592087,1,1,2.61591574783,471.699082621,3,0,0.260785120074,5,6.0,32,bw,99.7840700656,2019_jun_28_1516,002,256,20,5,mattin,Experiment_EEG_version,20,
Nonliving_Things,../experiment_stimuli/bw_bc_bl/Nonliving_Things/Buildings/castle_16.jpg,Buildings,0,castle,0,87,87,12,473.692760831,nV_V,1,473.72298401,474.955420115,1,1,1.86411925545,476.840100582,2,0,0.160560369142,5,6.0,32,bw,99.7840700656,2019_jun_28_1516,002,256,20,5,mattin,Experiment_EEG_version,20,
Nonliving_Things,../experiment_stimuli/bw_bc_bl/Nonliving_Things/Kitchen_Uten/small-saucepan_6.jpg,Kitchen_Uten,0,small-saucepan,0,88,88,77,478.733770757,V_nV,2,478.759797981,479.986373772,0,1,0.761878342833,480.768821909,1,1,0.190626358497,5,6.0,32,bw,99.7840700656,2019_jun_28_1516,002,256,20,5,mattin,Experiment_EEG_version,20,
Nonliving_Things,../experiment_stimuli/bw_bc_bl/Nonliving_Things/Furniture/rocking-chair_2.jpg,Furniture,0,rocking-chair,0,89,89,69,482.692360996,V_nV,2,482.713600396,483.945942103,1,2,1.2930446075,485.258616492,2,0,0.23071643163,5,6.0,32,bw,99.7840700656,2019_jun_28_1516,002,256,20,5,mattin,Experiment_EEG_version,20,
Nonliving_Things,../experiment_stimuli/bw_bc_bl/Nonliving_Things/Furniture/table_15.jpg,Furniture,0,table,0,90,90,81,487.22222493,V_nV,2,487.238255578,488.464851121,0,1,1.27301454439,489.75843211,1,1,0.230737653328,5,6.0,32,bw,99.7840700656,2019_jun_28_1516,002,256,20,5,mattin,Experiment_EEG_version,20,
Living_Things,../experiment_stimuli/bw_bc_bl/Living_Things/Animals/tapir_22.jpg,Animals,0,tapir,0,91,91,82,491.722021534,nV_V,2,491.751166679,492.994703969,1,2,0.962316005491,493.977593554,3,0,0.791942767915,5,6.0,32,bw,99.7840700656,2019_jun_28_1516,002,256,20,5,mattin,Experiment_EEG_version,20,
Nonliving_Things,../experiment_stimuli/bw_bc_bl/Nonliving_Things/Vehicles/bus_24.jpg,Vehicles,0,bus,0,92,92,9,496.502435145,V_nV,2,496.532499446,497.755069882,1,2,0.842056842637,498.617702549,1,1,0.290851635276,5,6.0,32,bw,99.7840700656,2019_jun_28_1516,002,256,20,5,mattin,Experiment_EEG_version,20,
Living_Things,../experiment_stimuli/bw_bc_bl/Living_Things/Birds/raven_26.jpg,Birds,0,raven,0,93,93,67,500.641457409,V_nV,1,500.674914952,501.90410073,0,2,0.631591979414,502.556264327,1,1,0.310733857914,5,6.0,32,bw,99.7840700656,2019_jun_28_1516,002,256,20,5,mattin,Experiment_EEG_version,20,
Nonliving_Things,../experiment_stimuli/bw_bc_bl/Nonliving_Things/Furniture/bed_14.jpg,Furniture,0,bed,0,94,94,5,504.600072525,V_nV,2,504.617334057,505.872760734,1,2,0.972347296658,506.865664009,1,1,0.28082344227,5,6.0,32,bw,99.7840700656,2019_jun_28_1516,002,256,20,5,mattin,Experiment_EEG_version,20,
Nonliving_Things,../experiment_stimuli/bw_bc_bl/Nonliving_Things/Vehicles/boat_17.jpg,Vehicles,0,boat,0,95,95,7,508.879392067,V_nV,2,508.89902033,510.182136134,1,2,4.11921467585,514.321913999,2,0,0.21067628602,5,6.0,32,bw,99.7840700656,2019_jun_28_1516,002,256,20,5,mattin,Experiment_EEG_version,20,
