category,probe_path,subcategory,fixation_duration,label,trials.thisRepN,trials.thisTrialN,trials.thisN,trials.thisIndex,image_onset_time,response_window,correctAns,probe_onset,discrim_resptime,response.corr,response.keys,response.rt,visible_resptime,visible.keys,visible.corr,visible.rt,probeFrames,jitter2,n_square,experiment_color,frameRate,date,session,image_size,premask_dur,probeFrames,participant,expName,postmask_dur,
Living_Things,../experiment_stimuli/bw_bc_bl/Living_Things/Birds/pigeon_7.jpg,Birds,0,pigeon,0,0,0,63,3.74354940653,V_nV,1,3.78234438086,5.04630135698,1,1,0.43116542534,5.50829629321,3,0,0.280824069865,5,6.0,32,bw,99.7796197801,2019_jul_12_1647,015,256,20,5,mattin,Experiment_EEG_version,20,
Nonliving_Things,../experiment_stimuli/bw_bc_bl/Nonliving_Things/Buildings/factory_14.jpg,Buildings,0,factory,0,1,1,28,7.52178371884,V_nV,2,7.53962218878,8.78443988925,0,1,0.481270146323,9.28627825831,2,0,0.100479976973,5,6.0,32,bw,99.7796197801,2019_jul_12_1647,015,256,20,5,mattin,Experiment_EEG_version,20,
Nonliving_Things,../experiment_stimuli/bw_bc_bl/Nonliving_Things/Vehicles/bus_26.jpg,Vehicles,0,bus,0,2,2,9,11.1196469944,nV_V,1,11.1481211775,12.3822675191,0,2,0.0302885428537,12.4331199655,2,0,0.120474687079,5,6.0,32,bw,99.7796197801,2019_jul_12_1647,015,256,20,5,mattin,Experiment_EEG_version,20,
Nonliving_Things,../experiment_stimuli/bw_bc_bl/Nonliving_Things/Kitchen_Uten/pot_18.jpg,Kitchen_Uten,0,pot,0,3,3,66,14.2865087346,V_nV,2,14.3044262037,15.5291226131,1,2,0.210669068154,15.7603457686,1,1,0.120476766024,5,7.5,32,bw,99.7796197801,2019_jul_12_1647,015,256,20,5,mattin,Experiment_EEG_version,20,
Living_Things,../experiment_stimuli/bw_bc_bl/Living_Things/Marine_creatures/crab_3.jpg,Marine_creatures,0,crab,0,4,4,21,17.6137496689,nV_V,2,17.6316229547,18.8864340479,1,2,0.461225760169,19.3682112226,2,0,0.250607789494,5,6.5,32,bw,99.7796197801,2019_jul_12_1647,015,256,20,5,mattin,Experiment_EEG_version,20,
Living_Things,../experiment_stimuli/bw_bc_bl/Living_Things/Marine_creatures/manatee_7.jpg,Marine_creatures,0,manatee,0,5,5,52,21.3518868745,V_nV,1,21.3746421863,22.6145467442,1,1,0.761879801517,23.3969707612,2,0,1.23290505796,5,6.0,32,bw,99.7796197801,2019_jul_12_1647,015,256,20,5,mattin,Experiment_EEG_version,20,
Nonliving_Things,../experiment_stimuli/bw_bc_bl/Nonliving_Things/Buildings/granary_11.jpg,Buildings,0,granary,0,6,6,35,26.3627979239,V_nV,2,26.3833813379,27.6154326571,1,2,0.180786794983,27.8167891484,2,0,0.0903991719242,5,6.0,32,bw,99.7796197801,2019_jul_12_1647,015,256,20,5,mattin,Experiment_EEG_version,20,
Nonliving_Things,../experiment_stimuli/bw_bc_bl/Nonliving_Things/Furniture/lamp_3.jpg,Furniture,0,lamp,0,7,7,46,29.6399567795,V_nV,2,29.6560807081,30.8825410532,1,2,0.621583639178,31.524699227,2,0,0.150617468636,5,6.5,32,bw,99.7796197801,2019_jul_12_1647,015,256,20,5,mattin,Experiment_EEG_version,20,
Nonliving_Things,../experiment_stimuli/bw_bc_bl/Nonliving_Things/Buildings/mill_23.jpg,Buildings,0,mill,0,8,8,53,33.4081392714,V_nV,2,33.4144866993,34.6407407611,1,2,0.711613954278,35.372910765,2,0,0.180613950826,5,6.0,32,bw,99.7796197801,2019_jul_12_1647,015,256,20,5,mattin,Experiment_EEG_version,20,
Living_Things,../experiment_stimuli/bw_bc_bl/Living_Things/Birds/pelican_5.jpg,Birds,0,pelican,0,9,9,60,37.2865951913,V_nV,1,37.3111914834,38.5392147477,0,2,0.250610432122,38.8104033275,2,0,0.441176486667,5,6.5,32,bw,99.7796197801,2019_jul_12_1647,015,256,20,5,mattin,Experiment_EEG_version,20,
Nonliving_Things,../experiment_stimuli/bw_bc_bl/Nonliving_Things/Vehicles/boat_12.jpg,Vehicles,0,boat,0,10,10,7,40.9846644809,nV_V,1,41.0059618952,42.2272437019,0,2,0.140370153822,42.3881942625,1,1,0.381061061053,5,6.0,32,bw,99.7796197801,2019_jul_12_1647,015,256,20,5,mattin,Experiment_EEG_version,20,
Nonliving_Things,../experiment_stimuli/bw_bc_bl/Nonliving_Things/Buildings/church_9.jpg,Buildings,0,church,0,11,11,17,44.5022953742,nV_V,1,44.5172678113,45.7549233446,0,2,0.150540883187,45.9260241946,2,0,0.17057754728,5,6.0,32,bw,99.7796197801,2019_jul_12_1647,015,256,20,5,mattin,Experiment_EEG_version,20,
Living_Things,../experiment_stimuli/bw_bc_bl/Living_Things/Animals/cow_4.jpg,Animals,0,cow,0,12,12,20,47.8295475042,V_nV,1,47.8528784679,49.0721610254,0,2,0.591511669103,49.6842377482,2,0,0.130493402947,5,7.5,32,bw,99.7796197801,2019_jul_12_1647,015,256,20,5,mattin,Experiment_EEG_version,20,
Nonliving_Things,../experiment_stimuli/bw_bc_bl/Nonliving_Things/Vehicles/plane_13.jpg,Vehicles,0,plane,0,13,13,64,51.5476433006,nV_V,1,51.5707144213,52.7902552958,0,2,0.010268784361,52.8211181182,2,0,0.180627902038,5,7.5,32,bw,99.7796197801,2019_jul_12_1647,015,256,20,5,mattin,Experiment_EEG_version,20,
Nonliving_Things,../experiment_stimuli/bw_bc_bl/Nonliving_Things/Kitchen_Uten/fondue_13.jpg,Kitchen_Uten,0,fondue,0,14,14,30,54.7345735279,nV_V,1,54.7589726194,55.987204754,0,2,0.421143314568,56.4289219794,1,1,3.89876643871,5,6.0,32,bw,99.7796197801,2019_jul_12_1647,015,256,20,5,mattin,Experiment_EEG_version,20,
Living_Things,../experiment_stimuli/bw_bc_bl/Living_Things/Animals/cheetah_5.jpg,Animals,0,cheetah,0,15,15,16,62.0605263691,nV_V,2,62.0767979238,63.3331989734,0,1,0.431174380006,63.7849323393,1,1,0.611547581619,5,7.5,32,bw,99.7796197801,2019_jul_12_1647,015,256,20,5,mattin,Experiment_EEG_version,20,
Nonliving_Things,../experiment_stimuli/bw_bc_bl/Nonliving_Things/Furniture/armchair_11.jpg,Furniture,0,armchair,0,16,16,2,66.1293816159,V_nV,2,66.1528610219,67.4220976445,1,2,0.601371743483,68.0440328515,3,0,0.220694967778,5,6.0,32,bw,99.7796197801,2019_jul_12_1647,015,256,20,5,mattin,Experiment_EEG_version,20,
Nonliving_Things,../experiment_stimuli/bw_bc_bl/Nonliving_Things/Vehicles/motorbike_4.jpg,Vehicles,0,motorbike,0,17,17,54,69.9978158164,V_nV,2,70.020659857,71.2604671302,1,2,0.13050138019,71.4115112259,2,0,0.451209401479,5,7.0,32,bw,99.7796197801,2019_jul_12_1647,015,256,20,5,mattin,Experiment_EEG_version,20,
Living_Things,../experiment_stimuli/bw_bc_bl/Living_Things/Animals/lynx_16.jpg,Animals,0,lynx,0,18,18,50,73.5956437697,nV_V,2,73.6144560373,74.848273112,0,1,0.090275947703,74.9591075231,2,0,0.200648987666,5,7.5,32,bw,99.7796197801,2019_jul_12_1647,015,256,20,5,mattin,Experiment_EEG_version,20,
Living_Things,../experiment_stimuli/bw_bc_bl/Living_Things/Marine_creatures/shark_15.jpg,Marine_creatures,0,shark,0,19,19,75,76.8928316999,V_nV,1,76.9126727877,78.1354359169,1,1,0.320919060381,78.4768982944,2,0,0.0703747742809,5,7.5,32,bw,99.7796197801,2019_jul_12_1647,015,256,20,5,mattin,Experiment_EEG_version,20,
Living_Things,../experiment_stimuli/bw_bc_bl/Living_Things/Insects/ladybird_22.jpg,Insects,0,ladybird,0,20,20,45,80.2801975864,V_nV,1,80.2982720577,81.5228054349,1,1,0.320921244565,81.8642762259,2,0,0.471240130253,5,6.5,32,bw,99.7796197801,2019_jul_12_1647,015,256,20,5,mattin,Experiment_EEG_version,20,
Living_Things,../experiment_stimuli/bw_bc_bl/Living_Things/Marine_creatures/whale_15.jpg,Marine_creatures,0,whale,0,21,21,94,84.0684506858,V_nV,1,84.0860003545,85.3110773687,1,1,0.140516178682,85.4721417513,1,1,2.68607444176,5,6.5,32,bw,99.7796197801,2019_jul_12_1647,015,256,20,5,mattin,Experiment_EEG_version,20,
Nonliving_Things,../experiment_stimuli/bw_bc_bl/Nonliving_Things/Kitchen_Uten/frying-pan_5.jpg,Kitchen_Uten,0,frying-pan,0,22,22,31,89.8911384819,V_nV,2,89.9075660347,91.15377301,1,2,0.691723389784,91.8660479607,3,0,0.150538097369,5,6.5,32,bw,99.7796197801,2019_jul_12_1647,015,256,20,5,mattin,Experiment_EEG_version,20,
Nonliving_Things,../experiment_stimuli/bw_bc_bl/Nonliving_Things/Furniture/couch_4.jpg,Furniture,0,couch,0,23,23,19,93.7495440943,V_nV,2,93.7680407267,94.9921288567,1,2,0.200657780748,95.213339977,1,1,0.0804386283271,5,6.0,32,bw,99.7796197801,2019_jul_12_1647,015,256,20,5,mattin,Experiment_EEG_version,20,
Living_Things,../experiment_stimuli/bw_bc_bl/Living_Things/Animals/tapir_10.jpg,Animals,0,tapir,0,24,24,82,97.0266756162,V_nV,1,97.0441490449,98.279291376,1,1,0.250768908067,98.5506137249,2,0,0.0803845124319,5,7.5,32,bw,99.7796197801,2019_jul_12_1647,015,256,20,5,mattin,Experiment_EEG_version,20,
Nonliving_Things,../experiment_stimuli/bw_bc_bl/Nonliving_Things/Furniture/bedside-table_9.jpg,Furniture,0,bedside-table,0,25,25,6,100.363941195,V_nV,2,100.382843308,101.606546021,1,2,0.350981673691,101.978065147,1,1,0.0904123296496,5,6.5,32,bw,99.7796197801,2019_jul_12_1647,015,256,20,5,mattin,Experiment_EEG_version,20,
Nonliving_Things,../experiment_stimuli/bw_bc_bl/Nonliving_Things/Kitchen_Uten/small-saucepan_15.jpg,Kitchen_Uten,0,small-saucepan,0,26,26,77,103.801412897,V_nV,2,103.842158357,105.074099069,0,1,0.651643496938,105.756311278,2,0,0.0904139159247,5,6.0,32,bw,99.7796197801,2019_jul_12_1647,015,256,20,5,mattin,Experiment_EEG_version,20,
Living_Things,../experiment_stimuli/bw_bc_bl/Living_Things/Animals/turtle_17.jpg,Animals,0,turtle,0,27,27,90,107.579650457,V_nV,1,107.598479379,108.822263354,0,2,0.200497320155,109.04331836,1,1,0.0803935986478,5,7.5,32,bw,99.7796197801,2019_jul_12_1647,015,256,20,5,mattin,Experiment_EEG_version,20,
Nonliving_Things,../experiment_stimuli/bw_bc_bl/Nonliving_Things/Musical_Inst/violin_26.jpg,Musical_Inst,0,violin,0,28,28,92,110.85678449,nV_V,1,110.882705354,112.139471908,1,1,0.441186832497,112.601233166,1,1,0.100430815946,5,6.0,32,bw,99.7796197801,2019_jul_12_1647,015,256,20,5,mattin,Experiment_EEG_version,20,
Nonliving_Things,../experiment_stimuli/bw_bc_bl/Nonliving_Things/Vehicles/van_26.jpg,Vehicles,0,van,0,29,29,91,114.434577384,V_nV,2,114.462479343,115.727292032,0,1,0.150544841774,115.898400371,1,1,0.150546221528,5,8.0,32,bw,99.7796197801,2019_jul_12_1647,015,256,20,5,mattin,Experiment_EEG_version,20,
Living_Things,../experiment_stimuli/bw_bc_bl/Living_Things/Birds/ostrich_17.jpg,Birds,0,ostrich,0,30,30,56,117.78185746,V_nV,1,117.799647731,119.07458809,0,2,0.270812850446,119.365945505,3,0,0.230731382268,5,6.5,32,bw,99.7796197801,2019_jul_12_1647,015,256,20,5,mattin,Experiment_EEG_version,20,
Living_Things,../experiment_stimuli/bw_bc_bl/Living_Things/Insects/butterfly_4.jpg,Insects,0,butterfly,0,31,31,10,121.329581718,V_nV,1,121.352222313,122.602272879,1,1,0.431155925384,123.054010463,2,0,0.260783435544,5,8.0,32,bw,99.7796197801,2019_jul_12_1647,015,256,20,5,mattin,Experiment_EEG_version,20,
Living_Things,../experiment_stimuli/bw_bc_bl/Living_Things/Animals/horse_19.jpg,Animals,0,horse,0,32,32,40,125.047678323,V_nV,1,125.064963152,126.310336941,1,1,0.441174125997,126.772070128,2,0,0.0904682462569,5,7.5,32,bw,99.7796197801,2019_jul_12_1647,015,256,20,5,mattin,Experiment_EEG_version,20,
Nonliving_Things,../experiment_stimuli/bw_bc_bl/Nonliving_Things/Furniture/Chest-of-drawers_14.jpg,Furniture,0,Chest-of-drawers,0,33,33,0,128.595402912,V_nV,2,128.61496939,129.848033498,1,2,0.280833513476,130.149422554,1,1,0.100431503728,5,6.5,32,bw,99.7796197801,2019_jul_12_1647,015,256,20,5,mattin,Experiment_EEG_version,20,
Living_Things,../experiment_stimuli/bw_bc_bl/Living_Things/Birds/barn-owl_15.jpg,Birds,0,barn-owl,0,34,34,4,131.98280105,V_nV,1,132.003627725,133.245431131,1,1,0.0202595454175,133.286250376,2,0,0.250771306455,5,7.5,32,bw,99.7796197801,2019_jul_12_1647,015,256,20,5,mattin,Experiment_EEG_version,20,
Living_Things,../experiment_stimuli/bw_bc_bl/Living_Things/Birds/owl_10.jpg,Birds,0,owl,0,35,35,57,135.269940769,nV_V,2,135.285612469,136.522564043,1,2,0.240751632256,136.783865729,1,1,0.110468463739,5,6.0,32,bw,99.7796197801,2019_jul_12_1647,015,256,20,5,mattin,Experiment_EEG_version,20,
Living_Things,../experiment_stimuli/bw_bc_bl/Living_Things/Animals/elephant_5.jpg,Animals,0,elephant,0,36,36,27,138.627245888,nV_V,2,138.657011722,139.909942689,0,1,0.611599205062,140.542100749,2,0,0.521351539297,5,6.0,32,bw,99.7796197801,2019_jul_12_1647,015,256,20,5,mattin,Experiment_EEG_version,20,
Nonliving_Things,../experiment_stimuli/bw_bc_bl/Nonliving_Things/Musical_Inst/guitar_23.jpg,Musical_Inst,0,guitar,0,37,37,36,142.796322709,V_nV,2,142.818435565,144.058984026,0,1,0.491305452073,144.570879659,2,0,0.100489939563,5,7.0,32,bw,99.7796197801,2019_jul_12_1647,015,256,20,5,mattin,Experiment_EEG_version,20,
Nonliving_Things,../experiment_stimuli/bw_bc_bl/Nonliving_Things/Buildings/castle_21.jpg,Buildings,0,castle,0,38,38,12,146.404177212,V_nV,2,146.426681015,147.65680702,1,2,0.832055310952,148.509431088,1,1,0.12047683727,5,6.0,32,bw,99.7796197801,2019_jul_12_1647,015,256,20,5,mattin,Experiment_EEG_version,20,
Nonliving_Things,../experiment_stimuli/bw_bc_bl/Nonliving_Things/Furniture/rocking-chair_24.jpg,Furniture,0,rocking-chair,0,39,39,69,150.362808662,V_nV,2,150.386124858,151.635480221,0,1,1.04233131907,152.698370703,2,0,0.21068406431,5,6.5,32,bw,99.7796197801,2019_jul_12_1647,015,256,20,5,mattin,Experiment_EEG_version,20,
Nonliving_Things,../experiment_stimuli/bw_bc_bl/Nonliving_Things/Vehicles/car_5.jpg,Vehicles,0,car,0,40,40,11,154.642115798,nV_V,1,154.668092775,155.914792711,0,2,0.651647974038,156.587016468,1,1,0.150593378581,5,8.0,32,bw,99.7796197801,2019_jul_12_1647,015,256,20,5,mattin,Experiment_EEG_version,20,
Living_Things,../experiment_stimuli/bw_bc_bl/Living_Things/Marine_creatures/sperm-whale_8.jpg,Marine_creatures,0,sperm-whale,0,41,41,80,158.470456399,V_nV,1,158.494596448,159.763184905,0,2,0.832046983764,160.61578013,1,1,0.240742482012,5,6.0,32,bw,99.7796197801,2019_jul_12_1647,015,256,20,5,mattin,Experiment_EEG_version,20,
Nonliving_Things,../experiment_stimuli/bw_bc_bl/Nonliving_Things/Kitchen_Uten/coking-pot_5.jpg,Kitchen_Uten,0,coking-pot,0,42,42,18,162.589436213,V_nV,2,162.611725891,163.882149208,1,2,0.70158760692,164.604304838,3,0,0.150534311309,5,6.0,32,bw,99.7796197801,2019_jul_12_1647,015,256,20,5,mattin,Experiment_EEG_version,20,
Living_Things,../experiment_stimuli/bw_bc_bl/Living_Things/Marine_creatures/killer-whale_1.jpg,Marine_creatures,0,killer-whale,0,43,43,43,166.487917693,nV_V,2,166.511045313,167.760595549,0,1,1.33313430869,169.114289321,2,0,0.0904203520622,5,8.0,32,bw,99.7796197801,2019_jul_12_1647,015,256,20,5,mattin,Experiment_EEG_version,20,
Living_Things,../experiment_stimuli/bw_bc_bl/Living_Things/Birds/goose_18.jpg,Birds,0,goose,0,44,44,34,170.937603917,V_nV,1,170.9507294,172.190232113,1,1,0.641618247144,172.852417278,2,0,0.210666493047,5,7.0,32,bw,99.7796197801,2019_jul_12_1647,015,256,20,5,mattin,Experiment_EEG_version,20,
Living_Things,../experiment_stimuli/bw_bc_bl/Living_Things/Birds/rooster_4.jpg,Birds,0,rooster,0,45,45,70,174.796011909,V_nV,1,174.814709862,176.048632093,1,1,0.481273653684,176.550473963,2,0,0.0603513442911,5,7.0,32,bw,99.7796197801,2019_jul_12_1647,015,256,20,5,mattin,Experiment_EEG_version,20,
Nonliving_Things,../experiment_stimuli/bw_bc_bl/Nonliving_Things/Vehicles/tractor_21.jpg,Vehicles,0,tractor,0,46,46,86,178.343728122,V_nV,2,178.362352727,179.586337072,0,1,0.521363091655,180.128253101,2,0,0.0904121757485,5,6.0,32,bw,99.7796197801,2019_jul_12_1647,015,256,20,5,mattin,Experiment_EEG_version,20,
Nonliving_Things,../experiment_stimuli/bw_bc_bl/Nonliving_Things/Buildings/cathedral_20.jpg,Buildings,0,cathedral,0,47,47,14,181.951585024,V_nV,2,181.975647562,183.204214979,1,2,1.34314467455,184.567913474,2,0,0.120495544281,5,6.0,32,bw,99.7796197801,2019_jul_12_1647,015,256,20,5,mattin,Experiment_EEG_version,20,
Nonliving_Things,../experiment_stimuli/bw_bc_bl/Nonliving_Things/Furniture/wardrobe_1.jpg,Furniture,0,wardrobe,0,48,48,93,186.421329796,V_nV,2,186.445191934,187.673946281,1,2,0.43117272621,188.125688545,1,1,0.17062088917,5,7.0,32,bw,99.7796197801,2019_jul_12_1647,015,256,20,5,mattin,Experiment_EEG_version,20,
Nonliving_Things,../experiment_stimuli/bw_bc_bl/Nonliving_Things/Buildings/palace_19.jpg,Buildings,0,palace,0,49,49,58,190.0291804,nV_V,1,190.050333143,191.281804378,0,2,0.671690694988,191.974103829,2,0,0.511327053187,5,6.0,32,bw,99.7796197801,2019_jul_12_1647,015,256,20,5,mattin,Experiment_EEG_version,20,
Nonliving_Things,../experiment_stimuli/bw_bc_bl/Nonliving_Things/Furniture/filling-cabinet_25.jpg,Furniture,0,filling-cabinet,0,50,50,29,194.218298386,nV_V,1,194.238852589,195.460914693,0,2,0.120484792627,195.601953493,1,1,0.130560977152,5,8.0,32,bw,99.7796197801,2019_jul_12_1647,015,256,20,5,mattin,Experiment_EEG_version,20,
Living_Things,../experiment_stimuli/bw_bc_bl/Living_Things/Animals/zebra_22.jpg,Animals,0,zebra,0,51,51,95,197.465365614,V_nV,1,197.473406287,198.707977503,0,2,0.260829514125,198.989364082,1,1,0.120475709438,5,6.5,32,bw,99.7796197801,2019_jul_12_1647,015,256,20,5,mattin,Experiment_EEG_version,20,
Nonliving_Things,../experiment_stimuli/bw_bc_bl/Nonliving_Things/Furniture/sofa_2.jpg,Furniture,0,sofa,0,52,52,78,200.842718262,V_nV,2,200.862981849,202.115400261,1,2,0.571464895504,202.707410481,3,0,0.110302390531,5,7.5,32,bw,99.7796197801,2019_jul_12_1647,015,256,20,5,mattin,Experiment_EEG_version,20,
Living_Things,../experiment_stimuli/bw_bc_bl/Living_Things/Marine_creatures/lobster_25.jpg,Marine_creatures,0,lobster,0,53,53,49,204.550795406,nV_V,2,204.564448959,205.803455474,0,1,0.521358058089,206.345346608,2,0,0.19066755753,5,6.0,32,bw,99.7796197801,2019_jul_12_1647,015,256,20,5,mattin,Experiment_EEG_version,20,
Living_Things,../experiment_stimuli/bw_bc_bl/Living_Things/Animals/lioness_26.jpg,Animals,0,lioness,0,54,54,48,208.26889782,V_nV,1,208.288651728,209.511506672,1,1,0.210657075746,209.742753395,1,1,0.160570703913,5,7.5,32,bw,99.7796197801,2019_jul_12_1647,015,256,20,5,mattin,Experiment_EEG_version,20,
Living_Things,../experiment_stimuli/bw_bc_bl/Living_Things/Animals/tiger_12.jpg,Animals,0,tiger,0,55,55,84,211.636236692,nV_V,2,211.653469187,212.908895458,0,1,0.320941131795,213.250415925,1,1,0.1104563626,5,6.5,32,bw,99.7796197801,2019_jul_12_1647,015,256,20,5,mattin,Experiment_EEG_version,20,
Nonliving_Things,../experiment_stimuli/bw_bc_bl/Nonliving_Things/Musical_Inst/drum_24.jpg,Musical_Inst,0,drum,0,56,56,25,215.093749911,V_nV,2,215.124560746,216.406514405,1,2,3.51788013522,219.944949875,3,0,0.741833200911,5,7.5,32,bw,99.7796197801,2019_jul_12_1647,015,256,20,5,mattin,Experiment_EEG_version,20,
Living_Things,../experiment_stimuli/bw_bc_bl/Living_Things/Marine_creatures/dolphin_5.jpg,Marine_creatures,0,dolphin,0,57,57,23,222.419703298,nV_V,2,222.424656177,223.692383214,0,1,0.601557910908,224.314491723,2,0,0.701757601229,5,6.5,32,bw,99.7796197801,2019_jul_12_1647,015,256,20,5,mattin,Experiment_EEG_version,20,
Living_Things,../experiment_stimuli/bw_bc_bl/Living_Things/Animals/giraffe_9.jpg,Animals,0,giraffe,0,58,58,32,226.749131016,V_nV,1,226.77676184,228.02180832,0,2,0.521377877565,228.563751491,2,0,0.371020996245,5,6.0,32,bw,99.7796197801,2019_jul_12_1647,015,256,20,5,mattin,Experiment_EEG_version,20,
Nonliving_Things,../experiment_stimuli/bw_bc_bl/Nonliving_Things/Kitchen_Uten/cup_0.jpg,Kitchen_Uten,0,cup,0,59,59,22,230.66766578,nV_V,1,230.686538968,231.920303837,1,1,0.501318269409,232.442214949,2,0,0.100436552893,5,8.0,32,bw,99.7796197801,2019_jul_12_1647,015,256,20,5,mattin,Experiment_EEG_version,20,
Nonliving_Things,../experiment_stimuli/bw_bc_bl/Nonliving_Things/Vehicles/train_15.jpg,Vehicles,0,train,0,60,60,87,234.275522313,nV_V,1,234.301615093,235.528152524,0,2,0.451223315205,235.999934957,1,1,0.160561722936,5,6.5,32,bw,99.7796197801,2019_jul_12_1647,015,256,20,5,mattin,Experiment_EEG_version,20,
Nonliving_Things,../experiment_stimuli/bw_bc_bl/Nonliving_Things/Furniture/chair_5.jpg,Furniture,0,chair,0,61,61,15,237.893401374,nV_V,1,237.916116916,239.16608902,1,1,0.0503313015215,239.236949909,1,1,0.43114886526,5,6.0,32,bw,99.7796197801,2019_jul_12_1647,015,256,20,5,mattin,Experiment_EEG_version,20,
Nonliving_Things,../experiment_stimuli/bw_bc_bl/Nonliving_Things/Vehicles/ship_21.jpg,Vehicles,0,ship,0,62,62,76,241.401050882,V_nV,2,241.432113834,242.69376526,1,2,1.15273325751,243.867046955,2,0,0.290847710567,5,6.5,32,bw,99.7796197801,2019_jul_12_1647,015,256,20,5,mattin,Experiment_EEG_version,20,
Nonliving_Things,../experiment_stimuli/bw_bc_bl/Nonliving_Things/Furniture/bookcase_17.jpg,Furniture,0,bookcase,0,63,63,8,245.890819108,V_nV,2,245.911760323,247.163489585,1,2,0.691735077649,247.875792254,2,0,0.120528363157,5,6.0,32,bw,99.7796197801,2019_jul_12_1647,015,256,20,5,mattin,Experiment_EEG_version,20,
Living_Things,../experiment_stimuli/bw_bc_bl/Living_Things/Birds/duck_4.jpg,Birds,0,duck,0,64,64,26,249.729171497,nV_V,2,249.74677251,250.991826746,1,2,0.401093755849,251.413512856,2,0,0.18062379281,5,6.5,32,bw,99.7796197801,2019_jul_12_1647,015,256,20,5,mattin,Experiment_EEG_version,20,
Living_Things,../experiment_stimuli/bw_bc_bl/Living_Things/Birds/toucan_4.jpg,Birds,0,toucan,0,65,65,85,253.327007479,nV_V,2,253.34447251,254.579637431,0,1,0.521348903887,255.131603682,2,0,0.200644036522,5,6.5,32,bw,99.7796197801,2019_jul_12_1647,015,256,20,5,mattin,Experiment_EEG_version,20,
Living_Things,../experiment_stimuli/bw_bc_bl/Living_Things/Birds/seagull_9.jpg,Birds,0,seagull,0,66,66,74,257.065145154,nV_V,2,257.070044128,258.297731355,0,1,0.45119917253,258.769510276,2,0,0.120484465268,5,7.0,32,bw,99.7796197801,2019_jul_12_1647,015,256,20,5,mattin,Experiment_EEG_version,20,
Living_Things,../experiment_stimuli/bw_bc_bl/Living_Things/Birds/kiwi_0.jpg,Birds,0,kiwi,0,67,67,44,260.622898335,nV_V,2,260.643061761,261.865505635,0,1,0.381049760617,262.267103595,2,0,0.130541402381,5,6.5,32,bw,99.7796197801,2019_jul_12_1647,015,256,20,5,mattin,Experiment_EEG_version,20,
Living_Things,../experiment_stimuli/bw_bc_bl/Living_Things/Insects/dragonfly_22.jpg,Insects,0,dragonfly,0,68,68,24,264.130540888,nV_V,2,264.145891723,265.373142786,0,1,0.130337675335,265.524056604,1,1,0.350976572372,5,8.0,32,bw,99.7796197801,2019_jul_12_1647,015,256,20,5,mattin,Experiment_EEG_version,20,
Nonliving_Things,../experiment_stimuli/bw_bc_bl/Nonliving_Things/Tools/hammer_10.jpg,Tools,0,hammer,0,69,69,37,267.608107171,V_nV,2,267.62318028,268.870762225,1,2,0.461061727954,269.352397616,1,1,0.140569550218,5,6.0,32,bw,99.7796197801,2019_jul_12_1647,015,256,20,5,mattin,Experiment_EEG_version,20,
Living_Things,../experiment_stimuli/bw_bc_bl/Living_Things/Birds/goldfinch_24.jpg,Birds,0,goldfinch,0,70,70,33,271.225984702,V_nV,1,271.25029988,272.528729825,0,2,0.721792269731,273.271078919,1,1,0.150543777971,5,6.0,32,bw,99.7796197801,2019_jul_12_1647,015,256,20,5,mattin,Experiment_EEG_version,20,
Living_Things,../experiment_stimuli/bw_bc_bl/Living_Things/Birds/sparrow_22.jpg,Birds,0,sparrow,0,71,71,79,275.154539617,V_nV,1,275.180447546,276.467298088,0,2,0.561448206427,277.04932043,2,0,0.210818359628,5,6.0,32,bw,99.7796197801,2019_jul_12_1647,015,256,20,5,mattin,Experiment_EEG_version,20,
Nonliving_Things,../experiment_stimuli/bw_bc_bl/Nonliving_Things/Musical_Inst/tuba_13.jpg,Musical_Inst,0,tuba,0,72,72,89,278.99289666,V_nV,2,279.024429599,280.295634903,1,2,1.09259335441,281.408781033,3,0,0.180692182854,5,7.0,32,bw,99.7796197801,2019_jul_12_1647,015,256,20,5,mattin,Experiment_EEG_version,20,
Nonliving_Things,../experiment_stimuli/bw_bc_bl/Nonliving_Things/Tools/axe_5.jpg,Tools,0,axe,0,73,73,3,283.322331096,nV_V,1,283.346494171,284.605027845,0,2,0.310920085292,284.93654913,2,0,0.140510340454,5,6.0,32,bw,99.7796197801,2019_jul_12_1647,015,256,20,5,mattin,Experiment_EEG_version,20,
Living_Things,../experiment_stimuli/bw_bc_bl/Living_Things/Birds/hen_17.jpg,Birds,0,hen,0,74,74,38,286.809919444,V_nV,1,286.829047092,288.082591515,0,2,0.491292204242,288.59444096,2,0,0.190468299901,5,6.0,32,bw,99.7796197801,2019_jul_12_1647,015,256,20,5,mattin,Experiment_EEG_version,20,
Living_Things,../experiment_stimuli/bw_bc_bl/Living_Things/Birds/raven_15.jpg,Birds,0,raven,0,75,75,67,290.5179891,nV_V,2,290.527853986,291.770636442,1,2,0.100461522583,291.891642872,2,0,0.140525817871,5,6.0,32,bw,99.7796197801,2019_jul_12_1647,015,256,20,5,mattin,Experiment_EEG_version,20,
Living_Things,../experiment_stimuli/bw_bc_bl/Living_Things/Insects/scorpion_3.jpg,Insects,0,scorpion,0,76,76,73,293.765061707,nV_V,2,293.783384067,295.017691614,1,2,0.0703767817467,295.10863169,2,0,0.170581686543,5,7.0,32,bw,99.7796197801,2019_jul_12_1647,015,256,20,5,mattin,Experiment_EEG_version,20,
Living_Things,../experiment_stimuli/bw_bc_bl/Living_Things/Animals/rhino_6.jpg,Animals,0,rhino,0,77,77,68,297.012159826,V_nV,1,297.053403947,298.284812645,0,2,0.340969976736,298.646343123,1,1,0.180609285599,5,6.0,32,bw,99.7796197801,2019_jul_12_1647,015,256,20,5,mattin,Experiment_EEG_version,20,
Nonliving_Things,../experiment_stimuli/bw_bc_bl/Nonliving_Things/Musical_Inst/piano__3.jpg,Musical_Inst,0,piano,0,78,78,62,300.559861607,nV_V,1,300.590119079,301.842555356,1,1,0.531403698027,302.394509548,2,0,0.150548146106,5,6.0,32,bw,99.7796197801,2019_jul_12_1647,015,256,20,5,mattin,Experiment_EEG_version,20,
Nonliving_Things,../experiment_stimuli/bw_bc_bl/Nonliving_Things/Furniture/lectern_6.jpg,Furniture,0,lectern,0,79,79,47,304.277963388,V_nV,2,304.296314552,305.550642271,1,2,0.48127407115,306.052454753,2,0,0.38104677177,5,6.0,32,bw,99.7796197801,2019_jul_12_1647,015,256,20,5,mattin,Experiment_EEG_version,20,
Nonliving_Things,../experiment_stimuli/bw_bc_bl/Nonliving_Things/Furniture/table_6.jpg,Furniture,0,table,0,80,80,81,308.166420115,nV_V,1,308.186855861,309.419051765,0,2,0.230715923943,309.670333307,2,0,0.160559485899,5,6.0,32,bw,99.7796197801,2019_jul_12_1647,015,256,20,5,mattin,Experiment_EEG_version,20,
Nonliving_Things,../experiment_stimuli/bw_bc_bl/Nonliving_Things/Kitchen_Uten/saucepan_2.jpg,Kitchen_Uten,0,saucepan,0,81,81,71,311.563815739,nV_V,1,311.58107158,312.816465792,1,1,0.461226237472,313.298250478,2,0,0.060358223971,5,7.5,32,bw,99.7796197801,2019_jul_12_1647,015,256,20,5,mattin,Experiment_EEG_version,20,
Living_Things,../experiment_stimuli/bw_bc_bl/Living_Things/Birds/penguin_24.jpg,Birds,0,penguin,0,82,82,61,315.091498758,V_nV,1,315.105090352,316.334114177,0,2,0.240756007843,316.595442198,2,0,0.23071170249,5,6.0,32,bw,99.7796197801,2019_jul_12_1647,015,256,20,5,mattin,Experiment_EEG_version,20,
Living_Things,../experiment_stimuli/bw_bc_bl/Living_Things/Animals/armadillo_4.jpg,Animals,0,armadillo,0,83,83,1,318.559051174,V_nV,1,318.580109155,319.801679684,0,2,0.300875959685,320.123102739,1,1,0.140518855536,5,6.0,32,bw,99.7796197801,2019_jul_12_1647,015,256,20,5,mattin,Experiment_EEG_version,20,
Living_Things,../experiment_stimuli/bw_bc_bl/Living_Things/Birds/hummingbird_4.jpg,Birds,0,hummingbird,0,84,84,42,321.996537026,V_nV,1,322.020957425,323.289266302,0,2,0.290690858848,323.600540143,1,1,0.130500714993,5,6.0,32,bw,99.7796197801,2019_jul_12_1647,015,256,20,5,mattin,Experiment_EEG_version,20,
Living_Things,../experiment_stimuli/bw_bc_bl/Living_Things/Animals/hippopotamus_8.jpg,Animals,0,hippopotamus,0,85,85,39,325.464096728,nV_V,2,325.48125225,326.766827889,1,2,0.591522368137,327.378909811,3,0,0.431161944289,5,6.0,32,bw,99.7796197801,2019_jul_12_1647,015,256,20,5,mattin,Experiment_EEG_version,20,
Living_Things,../experiment_stimuli/bw_bc_bl/Living_Things/Marine_creatures/narwhal_16.jpg,Marine_creatures,0,narwhal,0,86,86,55,329.542969968,nV_V,2,329.564933755,330.825670326,1,2,0.691579695791,331.537849229,3,0,0.230568764033,5,6.5,32,bw,99.7796197801,2019_jul_12_1647,015,256,20,5,mattin,Experiment_EEG_version,20,
Nonliving_Things,../experiment_stimuli/bw_bc_bl/Nonliving_Things/Kitchen_Uten/teapot_5.jpg,Kitchen_Uten,0,teapot,0,87,87,83,333.501586009,V_nV,2,333.523355297,334.7642433,0,1,0.481266319519,335.266071861,3,0,0.290861409856,5,6.0,32,bw,99.7796197801,2019_jul_12_1647,015,256,20,5,mattin,Experiment_EEG_version,20,
Nonliving_Things,../experiment_stimuli/bw_bc_bl/Nonliving_Things/Buildings/house_8.jpg,Buildings,0,house,0,88,88,41,337.289846717,V_nV,2,337.310716166,338.53244681,0,1,0.491289162543,339.044306928,1,1,0.130348780425,5,6.0,32,bw,99.7796197801,2019_jul_12_1647,015,256,20,5,mattin,Experiment_EEG_version,20,
Living_Things,../experiment_stimuli/bw_bc_bl/Living_Things/Birds/partridge_9.jpg,Birds,0,partridge,0,89,89,59,340.907712782,V_nV,1,340.912549997,342.180391698,1,1,0.471238769358,342.672203953,2,0,0.120502156671,5,6.5,32,bw,99.7796197801,2019_jul_12_1647,015,256,20,5,mattin,Experiment_EEG_version,20,
Living_Things,../experiment_stimuli/bw_bc_bl/Living_Things/Animals/cat_3.jpg,Animals,0,cat,0,90,90,13,344.525597501,nV_V,2,344.549269588,345.798265857,1,2,0.651657466777,346.470497242,2,0,0.260787856765,5,7.0,32,bw,99.7796197801,2019_jul_12_1647,015,256,20,5,mattin,Experiment_EEG_version,20,
Nonliving_Things,../experiment_stimuli/bw_bc_bl/Nonliving_Things/Musical_Inst/saxophone_13.jpg,Musical_Inst,0,saxophone,0,91,91,72,348.46416803,V_nV,2,348.48754226,349.716808117,0,1,0.441021751612,350.178397982,2,0,0.0202586580999,5,7.5,32,bw,99.7796197801,2019_jul_12_1647,015,256,20,5,mattin,Experiment_EEG_version,20,
Nonliving_Things,../experiment_stimuli/bw_bc_bl/Nonliving_Things/Furniture/bed_19.jpg,Furniture,0,bed,0,92,92,5,351.931739491,nV_V,1,351.956311254,353.184359266,1,1,0.0302835432813,353.235200637,1,1,0.731851650402,5,6.0,32,bw,99.7796197801,2019_jul_12_1647,015,256,20,5,mattin,Experiment_EEG_version,20,
Living_Things,../experiment_stimuli/bw_bc_bl/Living_Things/Birds/magpie_2.jpg,Birds,0,magpie,0,93,93,51,355.709947003,V_nV,1,355.715136113,356.962598191,0,2,0.691741272574,357.674882443,1,1,0.0703691991512,5,6.0,32,bw,99.7796197801,2019_jul_12_1647,015,256,20,5,mattin,Experiment_EEG_version,20,
Living_Things,../experiment_stimuli/bw_bc_bl/Living_Things/Marine_creatures/pomfret_18.jpg,Marine_creatures,0,pomfret,0,94,94,65,359.488175357,nV_V,2,359.503590334,360.780893716,0,1,0.541420113062,361.342886879,2,0,0.110461915145,5,6.0,32,bw,99.7796197801,2019_jul_12_1647,015,256,20,5,mattin,Experiment_EEG_version,20,
Nonliving_Things,../experiment_stimuli/bw_bc_bl/Nonliving_Things/Musical_Inst/trumpet_1.jpg,Musical_Inst,0,trumpet,0,95,95,88,363.186228744,V_nV,2,363.207007458,364.468925963,1,2,0.59151193616,365.080999866,3,0,0.230730743613,5,6.0,32,bw,99.7796197801,2019_jul_12_1647,015,256,20,5,mattin,Experiment_EEG_version,20,
