category,probe_path,subcategory,fixation_duration,label,trials.thisRepN,trials.thisTrialN,trials.thisN,trials.thisIndex,image_onset_time,response_window,correctAns,probe_onset,discrim_resptime,response.corr,response.keys,response.rt,visible_resptime,visible.keys,visible.corr,visible.rt,probeFrames,jitter2,n_square,experiment_color,frameRate,date,session,image_size,premask_dur,probeFrames,participant,expName,postmask_dur,
Nonliving_Things,../experiment_stimuli/bw_bc_bl/Nonliving_Things/Vehicles/plane_11.jpg,Vehicles,0,plane,0,0,0,64,3.74420203129,V_nV,2,3.78706216486,5.0469559289,1,2,0.531388405245,5.60922461888,2,0,0.290843627881,5,6.0,32,bw,99.7873230414,2019_jul_12_1702,017,256,20,5,mattin,Experiment_EEG_version,20,
Nonliving_Things,../experiment_stimuli/bw_bc_bl/Nonliving_Things/Furniture/wardrobe_24.jpg,Furniture,0,wardrobe,0,1,1,93,7.63268569671,V_nV,2,7.65388123621,8.90534003824,1,2,0.601529741893,9.52741627744,3,0,0.0603707500268,5,6.5,32,bw,99.7873230414,2019_jul_12_1702,017,256,20,5,mattin,Experiment_EEG_version,20,
Living_Things,../experiment_stimuli/bw_bc_bl/Living_Things/Animals/horse_12.jpg,Animals,0,horse,0,2,2,40,11.3207029176,nV_V,2,11.3417430189,12.5633199315,1,2,0.340963446535,12.9248202215,1,1,0.0510828497354,5,6.5,32,bw,99.7873230414,2019_jul_12_1702,017,256,20,5,mattin,Experiment_EEG_version,20,
Nonliving_Things,../experiment_stimuli/bw_bc_bl/Nonliving_Things/Vehicles/motorbike_21.jpg,Vehicles,0,motorbike,0,3,3,54,14.7080772216,V_nV,2,14.720508652,15.9506862655,0,1,0.0102951040026,15.9815392008,2,0,0.0403428524733,5,8.0,32,bw,99.7873230414,2019_jul_12_1702,017,256,20,5,mattin,Experiment_EEG_version,20,
Living_Things,../experiment_stimuli/bw_bc_bl/Living_Things/Birds/sparrow_13.jpg,Birds,0,sparrow,0,4,4,79,17.7547213016,V_nV,1,17.76522105,18.9873125809,1,1,0.230566004757,19.2384179365,1,1,0.120326294098,5,6.0,32,bw,99.7873230414,2019_jul_12_1702,017,256,20,5,mattin,Experiment_EEG_version,20,
Living_Things,../experiment_stimuli/bw_bc_bl/Living_Things/Insects/dragonfly_11.jpg,Insects,0,dragonfly,0,5,5,24,21.0919750647,nV_V,2,21.1145804685,22.3546241717,0,1,0.541401230032,22.9165733161,2,0,0.0803931478877,5,6.0,32,bw,99.7873230414,2019_jul_12_1702,017,256,20,5,mattin,Experiment_EEG_version,20,
Living_Things,../experiment_stimuli/bw_bc_bl/Living_Things/Animals/turtle_24.jpg,Animals,0,turtle,0,6,6,90,24.7298887563,V_nV,1,24.7499854693,25.9825219894,1,1,0.26078886399,26.2638783774,2,0,0.0904124383815,5,6.0,32,bw,99.7873230414,2019_jul_12_1702,017,256,20,5,mattin,Experiment_EEG_version,20,
Nonliving_Things,../experiment_stimuli/bw_bc_bl/Nonliving_Things/Musical_Inst/guitar_3.jpg,Musical_Inst,0,guitar,0,7,7,36,28.0872072589,nV_V,1,28.1075779723,29.3298217123,1,1,0.240746760042,29.5911033496,1,1,0.37101743184,5,7.0,32,bw,99.7873230414,2019_jul_12_1702,017,256,20,5,mattin,Experiment_EEG_version,20,
Living_Things,../experiment_stimuli/bw_bc_bl/Living_Things/Marine_creatures/killer-whale_15.jpg,Marine_creatures,0,killer-whale,0,8,8,43,31.6951132652,nV_V,2,31.7198381014,32.9677299152,0,1,0.120536013739,33.1088737978,1,1,0.120477811201,5,8.0,32,bw,99.7873230414,2019_jul_12_1702,017,256,20,5,mattin,Experiment_EEG_version,20,
Nonliving_Things,../experiment_stimuli/bw_bc_bl/Nonliving_Things/Vehicles/boat_7.jpg,Vehicles,0,boat,0,9,9,7,34.9621682335,nV_V,1,34.9952995658,36.2649093419,1,1,0.631597137079,36.9170677694,2,0,0.130549240392,5,6.5,32,bw,99.7873230414,2019_jul_12_1702,017,256,20,5,mattin,Experiment_EEG_version,20,
Living_Things,../experiment_stimuli/bw_bc_bl/Living_Things/Insects/scorpion_23.jpg,Insects,0,scorpion,0,10,10,73,38.7804865323,nV_V,2,38.7966805277,40.0631913636,0,1,0.120482904837,40.2042162172,2,0,0.771911043441,5,7.0,32,bw,99.7873230414,2019_jul_12_1702,017,256,20,5,mattin,Experiment_EEG_version,20,
Nonliving_Things,../experiment_stimuli/bw_bc_bl/Nonliving_Things/Buildings/mill_2.jpg,Buildings,0,mill,0,11,11,53,42.7090377151,V_nV,2,42.7334399831,43.991764527,1,2,0.451202679891,44.4635073398,2,0,0.120496578049,5,7.5,32,bw,99.7873230414,2019_jul_12_1702,017,256,20,5,mattin,Experiment_EEG_version,20,
Nonliving_Things,../experiment_stimuli/bw_bc_bl/Nonliving_Things/Kitchen_Uten/small-saucepan_9.jpg,Kitchen_Uten,0,small-saucepan,0,12,12,77,46.3168998908,nV_V,1,46.3389842291,47.5795539264,1,1,0.491289489903,48.0913792108,2,0,0.0904075964354,5,6.5,32,bw,99.7873230414,2019_jul_12_1702,017,256,20,5,mattin,Experiment_EEG_version,20,
Nonliving_Things,../experiment_stimuli/bw_bc_bl/Nonliving_Things/Tools/hammer_17.jpg,Tools,0,hammer,0,13,13,37,49.9147255432,nV_V,1,49.940216657,51.1773835861,1,1,0.421156675788,51.6191051009,2,0,0.0804149517789,5,7.0,32,bw,99.7873230414,2019_jul_12_1702,017,256,20,5,mattin,Experiment_EEG_version,20,
Nonliving_Things,../experiment_stimuli/bw_bc_bl/Nonliving_Things/Furniture/chair_7.jpg,Furniture,0,chair,0,14,14,15,53.432383301,nV_V,1,53.4462378705,54.6749944878,1,1,0.220701656071,54.916263445,1,1,0.371015255339,5,6.0,32,bw,99.7873230414,2019_jul_12_1702,017,256,20,5,mattin,Experiment_EEG_version,20,
Nonliving_Things,../experiment_stimuli/bw_bc_bl/Nonliving_Things/Tools/axe_2.jpg,Tools,0,axe,0,15,15,3,57.020209241,V_nV,2,57.0422123244,58.2928768382,0,1,0.561452258844,58.8749002968,2,0,0.0904166942928,5,7.0,32,bw,99.7873230414,2019_jul_12_1702,017,256,20,5,mattin,Experiment_EEG_version,20,
Living_Things,../experiment_stimuli/bw_bc_bl/Living_Things/Birds/partridge_18.jpg,Birds,0,partridge,0,16,16,59,60.6982158853,nV_V,2,60.7194796873,61.9608630224,1,2,0.521200642455,62.5026337483,1,1,0.0803977528121,5,6.0,32,bw,99.7873230414,2019_jul_12_1702,017,256,20,5,mattin,Experiment_EEG_version,20,
Living_Things,../experiment_stimuli/bw_bc_bl/Living_Things/Birds/hen_13.jpg,Birds,0,hen,0,17,17,38,64.3160938337,V_nV,1,64.3323668244,65.5987940109,1,1,0.521365629043,66.1407353438,2,0,0.070435980102,5,6.5,32,bw,99.7873230414,2019_jul_12_1702,017,256,20,5,mattin,Experiment_EEG_version,20,
Living_Things,../experiment_stimuli/bw_bc_bl/Living_Things/Marine_creatures/dolphin_8.jpg,Marine_creatures,0,dolphin,0,18,18,23,67.9439947566,nV_V,2,67.9653076595,69.2166635192,1,2,0.601537493756,69.8387580402,1,1,0.0904166828841,5,6.0,32,bw,99.7873230414,2019_jul_12_1702,017,256,20,5,mattin,Experiment_EEG_version,20,
Living_Things,../experiment_stimuli/bw_bc_bl/Living_Things/Animals/giraffe_14.jpg,Animals,0,giraffe,0,19,19,32,71.6621003763,V_nV,1,71.6804007553,72.9447825088,1,1,0.481274198974,73.4466083706,2,0,0.12064802344,5,6.5,32,bw,99.7873230414,2019_jul_12_1702,017,256,20,5,mattin,Experiment_EEG_version,20,
Nonliving_Things,../experiment_stimuli/bw_bc_bl/Nonliving_Things/Vehicles/ship_17.jpg,Vehicles,0,ship,0,20,20,76,75.30000688,nV_V,1,75.3186760182,76.5726759434,1,1,0.561451056041,77.1546735228,2,0,0.150555980625,5,6.0,32,bw,99.7873230414,2019_jul_12_1702,017,256,20,5,mattin,Experiment_EEG_version,20,
Nonliving_Things,../experiment_stimuli/bw_bc_bl/Nonliving_Things/Furniture/table_4.jpg,Furniture,0,table,0,21,21,81,79.0381679761,nV_V,1,79.0525829531,80.3008029065,1,1,0.350996996975,80.6723665358,2,0,0.10046057892,5,6.0,32,bw,99.7873230414,2019_jul_12_1702,017,256,20,5,mattin,Experiment_EEG_version,20,
Living_Things,../experiment_stimuli/bw_bc_bl/Living_Things/Birds/magpie_20.jpg,Birds,0,magpie,0,22,22,51,82.5057036104,V_nV,1,82.5250288092,83.7583271749,1,1,0.280855287565,84.0597437494,2,0,0.140526163159,5,6.0,32,bw,99.7873230414,2019_jul_12_1702,017,256,20,5,mattin,Experiment_EEG_version,20,
Living_Things,../experiment_stimuli/bw_bc_bl/Living_Things/Birds/barn-owl_0.jpg,Birds,0,barn-owl,0,23,23,4,85.9331590589,V_nV,1,85.9382263995,87.1657444285,1,1,0.190656136489,87.3769531865,1,1,0.230576267699,5,6.0,32,bw,99.7873230414,2019_jul_12_1702,017,256,20,5,mattin,Experiment_EEG_version,20,
Nonliving_Things,../experiment_stimuli/bw_bc_bl/Nonliving_Things/Buildings/castle_3.jpg,Buildings,0,castle,0,24,24,12,89.3405769404,nV_V,1,89.3547965663,90.6032312242,0,2,0.200672126375,90.8244685396,1,1,0.040311754914,5,6.0,32,bw,99.7873230414,2019_jul_12_1702,017,256,20,5,mattin,Experiment_EEG_version,20,
Living_Things,../experiment_stimuli/bw_bc_bl/Living_Things/Birds/duck_0.jpg,Birds,0,duck,0,25,25,26,92.5976696324,nV_V,2,92.6037952397,93.8703457895,1,2,0.611401778879,94.5022919113,3,0,0.150552442996,5,6.5,32,bw,99.7873230414,2019_jul_12_1702,017,256,20,5,mattin,Experiment_EEG_version,20,
Nonliving_Things,../experiment_stimuli/bw_bc_bl/Nonliving_Things/Furniture/bedside-table_6.jpg,Furniture,0,bedside-table,0,26,26,6,96.3859186941,nV_V,1,96.4086530218,97.6485713196,1,1,0.55142875365,98.2305693054,2,0,0.150545458077,5,7.0,32,bw,99.7873230414,2019_jul_12_1702,017,256,20,5,mattin,Experiment_EEG_version,20,
Living_Things,../experiment_stimuli/bw_bc_bl/Living_Things/Birds/pelican_24.jpg,Birds,0,pelican,0,27,27,60,100.114077552,nV_V,2,100.135129822,101.366669518,1,2,0.160580463009,101.547801983,1,1,0.300880144117,5,7.5,32,bw,99.7873230414,2019_jul_12_1702,017,256,20,5,mattin,Experiment_EEG_version,20,
Living_Things,../experiment_stimuli/bw_bc_bl/Living_Things/Marine_creatures/pomfret_8.jpg,Marine_creatures,0,pomfret,0,28,28,65,103.581596209,nV_V,2,103.595509263,104.854260524,1,2,0.0403629010543,104.915175434,1,1,0.170594355557,5,7.5,32,bw,99.7873230414,2019_jul_12_1702,017,256,20,5,mattin,Experiment_EEG_version,20,
Nonliving_Things,../experiment_stimuli/bw_bc_bl/Nonliving_Things/Furniture/bed_25.jpg,Furniture,0,bed,0,29,29,5,106.818635642,V_nV,2,106.844021201,108.121375541,1,2,1.70378025947,109.8457152,3,0,0.160571846645,5,6.0,32,bw,99.7873230414,2019_jul_12_1702,017,256,20,5,mattin,Experiment_EEG_version,20,
Nonliving_Things,../experiment_stimuli/bw_bc_bl/Nonliving_Things/Kitchen_Uten/teapot_26.jpg,Kitchen_Uten,0,teapot,0,30,30,83,111.73934995,nV_V,1,111.762616091,113.002009418,0,2,0.220706945052,113.243272454,1,1,0.0302976444364,5,6.5,32,bw,99.7873230414,2019_jul_12_1702,017,256,20,5,mattin,Experiment_EEG_version,20,
Living_Things,../experiment_stimuli/bw_bc_bl/Living_Things/Marine_creatures/lobster_20.jpg,Marine_creatures,0,lobster,0,31,31,49,115.006487136,V_nV,1,115.025629618,116.289158234,1,1,1.03249030071,117.342205186,2,0,0.0904329081532,5,7.5,32,bw,99.7873230414,2019_jul_12_1702,017,256,20,5,mattin,Experiment_EEG_version,20,
Living_Things,../experiment_stimuli/bw_bc_bl/Living_Things/Birds/seagull_12.jpg,Birds,0,seagull,0,32,32,74,119.165524775,nV_V,2,119.185948556,120.43820233,0,1,0.300882516429,120.759641927,2,0,0.0904082618654,5,6.0,32,bw,99.7873230414,2019_jul_12_1702,017,256,20,5,mattin,Experiment_EEG_version,20,
Living_Things,../experiment_stimuli/bw_bc_bl/Living_Things/Birds/hummingbird_22.jpg,Birds,0,hummingbird,0,33,33,42,122.582994443,nV_V,2,122.611813025,123.855632841,0,1,0.250621841755,124.126834872,2,0,0.0703703158069,5,6.0,32,bw,99.7873230414,2019_jul_12_1702,017,256,20,5,mattin,Experiment_EEG_version,20,
Living_Things,../experiment_stimuli/bw_bc_bl/Living_Things/Animals/armadillo_9.jpg,Animals,0,armadillo,0,34,34,1,125.930249903,V_nV,1,125.940842049,127.172871052,0,2,0.0403154767118,127.233725354,2,0,0.130505632143,5,6.5,32,bw,99.7873230414,2019_jul_12_1702,017,256,20,5,mattin,Experiment_EEG_version,20,
Living_Things,../experiment_stimuli/bw_bc_bl/Living_Things/Birds/ostrich_13.jpg,Birds,0,ostrich,0,35,35,56,129.097151049,V_nV,1,129.117526402,130.339751472,0,2,0.120490044123,130.480815758,1,1,0.150551969418,5,6.5,32,bw,99.7873230414,2019_jul_12_1702,017,256,20,5,mattin,Experiment_EEG_version,20,
Living_Things,../experiment_stimuli/bw_bc_bl/Living_Things/Animals/tapir_24.jpg,Animals,0,tapir,0,36,36,82,132.36426711,nV_V,2,132.383656316,133.62692033,1,2,0.250782313757,133.898256167,1,1,0.200674250489,5,6.0,32,bw,99.7873230414,2019_jul_12_1702,017,256,20,5,mattin,Experiment_EEG_version,20,
Living_Things,../experiment_stimuli/bw_bc_bl/Living_Things/Birds/goose_16.jpg,Birds,0,goose,0,37,37,34,135.831810245,V_nV,1,135.84947304,137.114510223,1,1,0.531374514569,137.66643717,3,0,0.140575907659,5,7.0,32,bw,99.7873230414,2019_jul_12_1702,017,256,20,5,mattin,Experiment_EEG_version,20,
Living_Things,../experiment_stimuli/bw_bc_bl/Living_Things/Marine_creatures/narwhal_2.jpg,Marine_creatures,0,narwhal,0,38,38,55,139.53988516,nV_V,2,139.55842142,140.792511581,1,2,0.902194843162,141.715260531,2,0,0.120476134587,5,6.0,32,bw,99.7873230414,2019_jul_12_1702,017,256,20,5,mattin,Experiment_EEG_version,20,
Nonliving_Things,../experiment_stimuli/bw_bc_bl/Nonliving_Things/Buildings/church_14.jpg,Buildings,0,church,0,39,39,17,143.568662067,V_nV,2,143.585795917,144.811269502,0,1,0.210679823766,145.042512631,1,1,0.140522268601,5,6.0,32,bw,99.7873230414,2019_jul_12_1702,017,256,20,5,mattin,Experiment_EEG_version,20,
Nonliving_Things,../experiment_stimuli/bw_bc_bl/Nonliving_Things/Musical_Inst/tuba_3.jpg,Musical_Inst,0,tuba,0,40,40,89,146.915944485,nV_V,1,146.93723093,148.178599337,1,1,0.86213230365,149.061287243,3,0,0.130506320158,5,6.0,32,bw,99.7873230414,2019_jul_12_1702,017,256,20,5,mattin,Experiment_EEG_version,20,
Living_Things,../experiment_stimuli/bw_bc_bl/Living_Things/Birds/kiwi_2.jpg,Birds,0,kiwi,0,41,41,44,150.924673976,nV_V,2,150.937582142,152.157262402,0,1,0.180621740641,152.358448252,1,1,0.0804400870111,5,6.5,32,bw,99.7873230414,2019_jul_12_1702,017,256,20,5,mattin,Experiment_EEG_version,20,
Nonliving_Things,../experiment_stimuli/bw_bc_bl/Nonliving_Things/Furniture/lamp_18.jpg,Furniture,0,lamp,0,42,42,46,154.171762873,nV_V,1,154.188344007,155.444418876,1,1,0.801812789636,156.266805949,2,0,0.120332673425,5,6.0,32,bw,99.7873230414,2019_jul_12_1702,017,256,20,5,mattin,Experiment_EEG_version,20,
Living_Things,../experiment_stimuli/bw_bc_bl/Living_Things/Birds/rooster_13.jpg,Birds,0,rooster,0,43,43,70,158.120348104,nV_V,2,158.13957786,159.382995587,0,1,0.060359892901,159.46390965,2,0,0.180629709968,5,6.0,32,bw,99.7873230414,2019_jul_12_1702,017,256,20,5,mattin,Experiment_EEG_version,20,
Living_Things,../experiment_stimuli/bw_bc_bl/Living_Things/Birds/goldfinch_15.jpg,Birds,0,goldfinch,0,44,44,33,161.377443325,V_nV,1,161.395890237,162.630068179,1,1,0.25076914113,162.901389002,1,1,0.140537189785,5,6.5,32,bw,99.7873230414,2019_jul_12_1702,017,256,20,5,mattin,Experiment_EEG_version,20,
Nonliving_Things,../experiment_stimuli/bw_bc_bl/Nonliving_Things/Furniture/Chest-of-drawers_9.jpg,Furniture,0,Chest-of-drawers,0,45,45,0,164.77483527,nV_V,1,164.800039063,166.057527436,1,1,0.511351695284,166.5894367,2,0,0.130547071341,5,6.0,32,bw,99.7873230414,2019_jul_12_1702,017,256,20,5,mattin,Experiment_EEG_version,20,
Nonliving_Things,../experiment_stimuli/bw_bc_bl/Nonliving_Things/Furniture/lectern_4.jpg,Furniture,0,lectern,0,46,46,47,168.452848662,nV_V,1,168.473619913,169.715501833,1,1,0.1705894568,169.906632663,2,0,0.290853360901,5,7.5,32,bw,99.7873230414,2019_jul_12_1702,017,256,20,5,mattin,Experiment_EEG_version,20,
Living_Things,../experiment_stimuli/bw_bc_bl/Living_Things/Animals/lioness_18.jpg,Animals,0,lioness,0,47,47,48,171.930415478,nV_V,2,171.954750105,173.193067615,1,2,0.140531430487,173.354138178,2,0,0.541400387883,5,8.0,32,bw,99.7873230414,2019_jul_12_1702,017,256,20,5,mattin,Experiment_EEG_version,20,
Nonliving_Things,../experiment_stimuli/bw_bc_bl/Nonliving_Things/Musical_Inst/saxophone_1.jpg,Musical_Inst,0,saxophone,0,48,48,72,175.628494539,V_nV,2,175.643571208,176.871090647,0,1,0.0302882310934,176.921915134,1,1,0.130501230014,5,6.0,32,bw,99.7873230414,2019_jul_12_1702,017,256,20,5,mattin,Experiment_EEG_version,20,
Nonliving_Things,../experiment_stimuli/bw_bc_bl/Nonliving_Things/Furniture/bookcase_13.jpg,Furniture,0,bookcase,0,49,49,8,178.78533833,nV_V,1,178.826361216,180.058011427,1,1,0.461226684973,180.539796124,2,0,0.110474110348,5,6.5,32,bw,99.7873230414,2019_jul_12_1702,017,256,20,5,mattin,Experiment_EEG_version,20,
Nonliving_Things,../experiment_stimuli/bw_bc_bl/Nonliving_Things/Furniture/armchair_21.jpg,Furniture,0,armchair,0,50,50,2,182.383173584,V_nV,2,182.412061476,183.635807636,0,1,0.371034409618,184.027389765,1,1,0.310901506571,5,7.5,32,bw,99.7873230414,2019_jul_12_1702,017,256,20,5,mattin,Experiment_EEG_version,20,
Nonliving_Things,../experiment_stimuli/bw_bc_bl/Nonliving_Things/Buildings/cathedral_1.jpg,Buildings,0,cathedral,0,51,51,14,186.071205477,V_nV,2,186.102268482,187.333859656,1,2,0.371030484792,187.725442081,1,1,0.120493709575,5,7.0,32,bw,99.7873230414,2019_jul_12_1702,017,256,20,5,mattin,Experiment_EEG_version,20,
Nonliving_Things,../experiment_stimuli/bw_bc_bl/Nonliving_Things/Kitchen_Uten/fondue_25.jpg,Kitchen_Uten,0,fondue,0,52,52,30,189.578851997,V_nV,2,189.59635467,190.851513485,1,2,0.751882743323,191.623959902,3,0,0.491292651277,5,6.0,32,bw,99.7873230414,2019_jul_12_1702,017,256,20,5,mattin,Experiment_EEG_version,20,
Nonliving_Things,../experiment_stimuli/bw_bc_bl/Nonliving_Things/Musical_Inst/piano__9.jpg,Musical_Inst,0,piano,0,53,53,62,193.848140865,nV_V,1,193.880603494,195.100769745,1,1,0.340968630742,195.462308685,1,1,0.14054157678,5,6.0,32,bw,99.7873230414,2019_jul_12_1702,017,256,20,5,mattin,Experiment_EEG_version,20,
Nonliving_Things,../experiment_stimuli/bw_bc_bl/Nonliving_Things/Furniture/couch_15.jpg,Furniture,0,couch,0,54,54,19,197.335741604,nV_V,1,197.351470382,198.588365747,1,1,0.371042567305,198.980935861,1,1,0.120499844896,5,7.5,32,bw,99.7873230414,2019_jul_12_1702,017,256,20,5,mattin,Experiment_EEG_version,20,
Living_Things,../experiment_stimuli/bw_bc_bl/Living_Things/Marine_creatures/crab_25.jpg,Marine_creatures,0,crab,0,55,55,21,200.833356171,V_nV,1,200.838246821,202.085977678,1,1,1.12267654669,203.229215606,2,0,0.110312548233,5,8.0,32,bw,99.7873230414,2019_jul_12_1702,017,256,20,5,mattin,Experiment_EEG_version,20,
Living_Things,../experiment_stimuli/bw_bc_bl/Living_Things/Birds/pigeon_8.jpg,Birds,0,pigeon,0,56,56,63,205.072578561,V_nV,1,205.089974785,206.325213607,0,2,2.00459249085,208.350377602,2,0,0.371026428416,5,6.5,32,bw,99.7873230414,2019_jul_12_1702,017,256,20,5,mattin,Experiment_EEG_version,20,
Living_Things,../experiment_stimuli/bw_bc_bl/Living_Things/Marine_creatures/sperm-whale_22.jpg,Marine_creatures,0,sperm-whale,0,57,57,80,210.454303496,V_nV,1,210.475458495,211.696909987,1,1,0.260793334106,211.978261052,1,1,0.120503660524,5,6.5,32,bw,99.7873230414,2019_jul_12_1702,017,256,20,5,mattin,Experiment_EEG_version,20,
Living_Things,../experiment_stimuli/bw_bc_bl/Living_Things/Animals/cat_22.jpg,Animals,0,cat,0,58,58,13,213.831654998,V_nV,1,213.847336878,215.084280438,1,1,0.200656957459,215.305494167,1,1,0.140521452995,5,6.5,32,bw,99.7873230414,2019_jul_12_1702,017,256,20,5,mattin,Experiment_EEG_version,20,
Living_Things,../experiment_stimuli/bw_bc_bl/Living_Things/Birds/penguin_18.jpg,Birds,0,penguin,0,59,59,61,217.178947833,nV_V,2,217.191783771,218.441605628,1,2,1.87430843152,220.336465629,2,0,0.20065344614,5,6.5,32,bw,99.7873230414,2019_jul_12_1702,017,256,20,5,mattin,Experiment_EEG_version,20,
Living_Things,../experiment_stimuli/bw_bc_bl/Living_Things/Insects/butterfly_23.jpg,Insects,0,butterfly,0,60,60,10,222.270033345,nV_V,2,222.289048133,223.542721205,0,1,0.481275792932,224.044561003,2,0,0.100440996233,5,7.0,32,bw,99.7873230414,2019_jul_12_1702,017,256,20,5,mattin,Experiment_EEG_version,20,
Nonliving_Things,../experiment_stimuli/bw_bc_bl/Nonliving_Things/Kitchen_Uten/coking-pot_11.jpg,Kitchen_Uten,0,coking-pot,0,61,61,18,225.877894517,V_nV,2,225.904414834,227.140553744,1,2,0.050335199805,227.211421303,2,0,0.180620401865,5,6.0,32,bw,99.7873230414,2019_jul_12_1702,017,256,20,5,mattin,Experiment_EEG_version,20,
Nonliving_Things,../experiment_stimuli/bw_bc_bl/Nonliving_Things/Vehicles/car_2.jpg,Vehicles,0,car,0,62,62,11,229.124961245,V_nV,2,229.145038537,230.367562744,1,2,0.0302977759857,230.418438077,2,0,0.100452089915,5,6.5,32,bw,99.7873230414,2019_jul_12_1702,017,256,20,5,mattin,Experiment_EEG_version,20,
Living_Things,../experiment_stimuli/bw_bc_bl/Living_Things/Animals/cow_19.jpg,Animals,0,cow,0,63,63,20,232.251770528,V_nV,1,232.275501292,233.504399205,1,1,0.31090676575,233.835858412,1,1,0.090415235376,5,6.0,32,bw,99.7873230414,2019_jul_12_1702,017,256,20,5,mattin,Experiment_EEG_version,20,
Nonliving_Things,../experiment_stimuli/bw_bc_bl/Nonliving_Things/Furniture/filling-cabinet_24.jpg,Furniture,0,filling-cabinet,0,64,64,29,235.659186932,V_nV,2,235.674162689,236.911809948,0,1,0.250773719978,237.18315512,1,1,0.120492179412,5,6.0,32,bw,99.7873230414,2019_jul_12_1702,017,256,20,5,mattin,Experiment_EEG_version,20,
Living_Things,../experiment_stimuli/bw_bc_bl/Living_Things/Animals/lynx_10.jpg,Animals,0,lynx,0,65,65,50,239.036537291,V_nV,1,239.058946844,240.299189996,1,1,0.350993914064,240.68075277,1,1,0.110458320938,5,7.0,32,bw,99.7873230414,2019_jul_12_1702,017,256,20,5,mattin,Experiment_EEG_version,20,
Nonliving_Things,../experiment_stimuli/bw_bc_bl/Nonliving_Things/Furniture/sofa_7.jpg,Furniture,0,sofa,0,66,66,78,242.524132722,V_nV,2,242.528927095,243.806833421,1,2,1.07256431039,244.899958138,2,0,0.531396160601,5,6.5,32,bw,99.7873230414,2019_jul_12_1702,017,256,20,5,mattin,Experiment_EEG_version,20,
Nonliving_Things,../experiment_stimuli/bw_bc_bl/Nonliving_Things/Vehicles/van_21.jpg,Vehicles,0,van,0,67,67,91,247.164247847,V_nV,2,247.185488292,248.446928698,1,2,0.571472455747,249.038945399,2,0,1.07255222043,5,7.5,32,bw,99.7873230414,2019_jul_12_1702,017,256,20,5,mattin,Experiment_EEG_version,20,
Living_Things,../experiment_stimuli/bw_bc_bl/Living_Things/Birds/toucan_11.jpg,Birds,0,toucan,0,68,68,85,251.844429464,V_nV,1,251.872886974,253.127125939,1,1,0.491294809384,253.638966899,2,0,0.0703938829247,5,7.0,32,bw,99.7873230414,2019_jul_12_1702,017,256,20,5,mattin,Experiment_EEG_version,20,
Nonliving_Things,../experiment_stimuli/bw_bc_bl/Nonliving_Things/Vehicles/train_21.jpg,Vehicles,0,train,0,69,69,87,255.442260928,V_nV,2,255.456395946,256.704912227,0,1,0.381059008418,257.106578988,2,0,0.13055240619,5,6.0,32,bw,99.7873230414,2019_jul_12_1702,017,256,20,5,mattin,Experiment_EEG_version,20,
Living_Things,../experiment_stimuli/bw_bc_bl/Living_Things/Marine_creatures/manatee_17.jpg,Marine_creatures,0,manatee,0,70,70,52,258.969972074,nV_V,2,258.995073835,260.232597272,0,1,0.49130126019,260.744462033,2,0,0.0703913301695,5,6.0,32,bw,99.7873230414,2019_jul_12_1702,017,256,20,5,mattin,Experiment_EEG_version,20,
Nonliving_Things,../experiment_stimuli/bw_bc_bl/Nonliving_Things/Buildings/palace_12.jpg,Buildings,0,palace,0,71,71,58,262.547732769,V_nV,2,262.575799306,263.800366533,0,1,0.130356017035,263.951283878,1,1,0.120482593076,5,6.0,32,bw,99.7873230414,2019_jul_12_1702,017,256,20,5,mattin,Experiment_EEG_version,20,
Nonliving_Things,../experiment_stimuli/bw_bc_bl/Nonliving_Things/Furniture/rocking-chair_9.jpg,Furniture,0,rocking-chair,0,72,72,69,265.804833574,nV_V,1,265.823662861,267.077498814,1,1,0.46121995966,267.559282796,2,0,0.0704045819584,5,6.0,32,bw,99.7873230414,2019_jul_12_1702,017,256,20,5,mattin,Experiment_EEG_version,20,
Living_Things,../experiment_stimuli/bw_bc_bl/Living_Things/Animals/elephant_12.jpg,Animals,0,elephant,0,73,73,27,269.36257922,nV_V,2,269.385085825,270.625228842,0,1,0.381058343221,271.026840544,2,0,0.0704116686247,5,6.0,32,bw,99.7873230414,2019_jul_12_1702,017,256,20,5,mattin,Experiment_EEG_version,20,
Nonliving_Things,../experiment_stimuli/bw_bc_bl/Nonliving_Things/Kitchen_Uten/frying-pan_13.jpg,Kitchen_Uten,0,frying-pan,0,74,74,31,272.840151495,nV_V,1,272.853973027,274.092778649,1,1,0.68155178451,274.794881755,2,0,0.100439628121,5,6.0,32,bw,99.7873230414,2019_jul_12_1702,017,256,20,5,mattin,Experiment_EEG_version,20,
Nonliving_Things,../experiment_stimuli/bw_bc_bl/Nonliving_Things/Buildings/house_15.jpg,Buildings,0,house,0,75,75,41,276.628400008,V_nV,2,276.652089224,277.881024001,0,1,0.200667705387,278.102256174,1,1,0.110312905163,5,6.0,32,bw,99.7873230414,2019_jul_12_1702,017,256,20,5,mattin,Experiment_EEG_version,20,
Nonliving_Things,../experiment_stimuli/bw_bc_bl/Nonliving_Things/Kitchen_Uten/pot_2.jpg,Kitchen_Uten,0,pot,0,76,76,66,279.945613866,nV_V,1,279.965939062,281.218293053,1,1,0.43100597593,281.669866673,2,0,0.0503330719657,5,6.5,32,bw,99.7873230414,2019_jul_12_1702,017,256,20,5,mattin,Experiment_EEG_version,20,
Nonliving_Things,../experiment_stimuli/bw_bc_bl/Nonliving_Things/Buildings/granary_5.jpg,Buildings,0,granary,0,77,77,35,283.453263039,nV_V,1,283.479724981,284.73594877,1,1,0.551420051139,285.307942306,2,0,0.0403160667047,5,6.5,32,bw,99.7873230414,2019_jul_12_1702,017,256,20,5,mattin,Experiment_EEG_version,20,
Nonliving_Things,../experiment_stimuli/bw_bc_bl/Nonliving_Things/Musical_Inst/drum_10.jpg,Musical_Inst,0,drum,0,78,78,25,287.081166406,nV_V,1,287.103362616,288.333784132,0,2,0.431163782487,288.78551084,1,1,0.0603970505763,5,6.0,32,bw,99.7873230414,2019_jul_12_1702,017,256,20,5,mattin,Experiment_EEG_version,20,
Nonliving_Things,../experiment_stimuli/bw_bc_bl/Nonliving_Things/Musical_Inst/trumpet_17.jpg,Musical_Inst,0,trumpet,0,79,79,88,290.578802691,V_nV,2,290.602803321,291.851444755,0,1,0.421142446343,292.293153578,2,0,0.902201617602,5,6.0,32,bw,99.7873230414,2019_jul_12_1702,017,256,20,5,mattin,Experiment_EEG_version,20,
Nonliving_Things,../experiment_stimuli/bw_bc_bl/Nonliving_Things/Musical_Inst/violin_17.jpg,Musical_Inst,0,violin,0,80,80,92,294.928240507,V_nV,2,294.944200445,296.190893576,1,2,0.551426208578,296.762877579,1,1,0.120486085769,5,6.0,32,bw,99.7873230414,2019_jul_12_1702,017,256,20,5,mattin,Experiment_EEG_version,20,
Nonliving_Things,../experiment_stimuli/bw_bc_bl/Nonliving_Things/Kitchen_Uten/saucepan_19.jpg,Kitchen_Uten,0,saucepan,0,81,81,71,298.616275807,V_nV,2,298.657108763,299.919017006,1,2,0.751864480553,300.691430171,2,0,1.08258556738,5,8.0,32,bw,99.7873230414,2019_jul_12_1702,017,256,20,5,mattin,Experiment_EEG_version,20,
Living_Things,../experiment_stimuli/bw_bc_bl/Living_Things/Marine_creatures/whale_14.jpg,Marine_creatures,0,whale,0,82,82,94,303.506922355,V_nV,1,303.527591227,304.769575243,0,2,0.481291051954,305.271426677,1,1,0.0904233295005,5,6.0,32,bw,99.7873230414,2019_jul_12_1702,017,256,20,5,mattin,Experiment_EEG_version,20,
Living_Things,../experiment_stimuli/bw_bc_bl/Living_Things/Animals/cheetah_15.jpg,Animals,0,cheetah,0,83,83,16,307.094754155,nV_V,2,307.112908235,308.387453056,1,2,0.651648643427,309.059673682,3,0,0.100465180352,5,6.5,32,bw,99.7873230414,2019_jul_12_1702,017,256,20,5,mattin,Experiment_EEG_version,20,
Living_Things,../experiment_stimuli/bw_bc_bl/Living_Things/Animals/hippopotamus_1.jpg,Animals,0,hippopotamus,0,84,84,39,310.903025638,nV_V,2,310.919053086,312.165694139,1,2,0.310751572018,312.496996336,1,1,0.0804170796182,5,7.0,32,bw,99.7873230414,2019_jul_12_1702,017,256,20,5,mattin,Experiment_EEG_version,20,
Nonliving_Things,../experiment_stimuli/bw_bc_bl/Nonliving_Things/Vehicles/bus_11.jpg,Vehicles,0,bus,0,85,85,9,314.310491331,nV_V,1,314.328254655,315.603173236,1,1,0.210728131002,315.834444699,2,0,0.260795382783,5,6.0,32,bw,99.7873230414,2019_jul_12_1702,017,256,20,5,mattin,Experiment_EEG_version,20,
Living_Things,../experiment_stimuli/bw_bc_bl/Living_Things/Animals/rhino_21.jpg,Animals,0,rhino,0,86,86,68,317.828109018,nV_V,2,317.845037077,319.110811605,1,2,0.86209842423,319.993492864,2,0,0.100488382857,5,6.5,32,bw,99.7873230414,2019_jul_12_1702,017,256,20,5,mattin,Experiment_EEG_version,20,
Living_Things,../experiment_stimuli/bw_bc_bl/Living_Things/Marine_creatures/shark_16.jpg,Marine_creatures,0,shark,0,87,87,75,321.826816661,V_nV,1,321.845938504,323.109525312,0,2,0.521359400125,323.651449746,1,1,0.0803988131229,5,8.0,32,bw,99.7873230414,2019_jul_12_1702,017,256,20,5,mattin,Experiment_EEG_version,20,
Nonliving_Things,../experiment_stimuli/bw_bc_bl/Nonliving_Things/Kitchen_Uten/cup_13.jpg,Kitchen_Uten,0,cup,0,88,88,22,325.474786688,nV_V,1,325.496305344,326.767473153,1,1,0.912047226215,327.700102391,2,0,0.120480273617,5,6.0,32,bw,99.7873230414,2019_jul_12_1702,017,256,20,5,mattin,Experiment_EEG_version,20,
Nonliving_Things,../experiment_stimuli/bw_bc_bl/Nonliving_Things/Buildings/factory_16.jpg,Buildings,0,factory,0,89,89,28,329.553640207,nV_V,1,329.568477601,330.836339031,1,1,1.27300370601,332.129887321,3,0,0.330953005236,5,6.0,32,bw,99.7873230414,2019_jul_12_1702,017,256,20,5,mattin,Experiment_EEG_version,20,
Living_Things,../experiment_stimuli/bw_bc_bl/Living_Things/Insects/ladybird_10.jpg,Insects,0,ladybird,0,90,90,45,334.193760431,V_nV,1,334.207079326,335.456396283,1,1,1.28302264749,336.759969003,2,0,0.0403015632182,5,7.0,32,bw,99.7873230414,2019_jul_12_1702,017,256,20,5,mattin,Experiment_EEG_version,20,
Living_Things,../experiment_stimuli/bw_bc_bl/Living_Things/Birds/raven_21.jpg,Birds,0,raven,0,91,91,67,338.53319526,V_nV,1,338.555790146,339.78582181,0,2,0.31093729916,340.117368012,1,1,0.0403170746285,5,6.0,32,bw,99.7873230414,2019_jul_12_1702,017,256,20,5,mattin,Experiment_EEG_version,20,
Living_Things,../experiment_stimuli/bw_bc_bl/Living_Things/Animals/zebra_16.jpg,Animals,0,zebra,0,92,92,95,341.890504146,V_nV,1,341.904131978,343.163175221,1,1,0.791948046302,343.975665802,1,1,0.12050580699,5,6.0,32,bw,99.7873230414,2019_jul_12_1702,017,256,20,5,mattin,Experiment_EEG_version,20,
Nonliving_Things,../experiment_stimuli/bw_bc_bl/Nonliving_Things/Vehicles/tractor_7.jpg,Vehicles,0,tractor,0,93,93,86,345.829077868,nV_V,1,345.841694654,347.121808979,1,1,1.18264101888,348.325001014,3,0,0.381051546196,5,8.0,32,bw,99.7873230414,2019_jul_12_1702,017,256,20,5,mattin,Experiment_EEG_version,20,
Living_Things,../experiment_stimuli/bw_bc_bl/Living_Things/Birds/owl_24.jpg,Birds,0,owl,0,94,94,57,350.43913437,nV_V,2,350.455660237,351.711800579,1,2,1.08275036607,352.815107078,2,0,0.421171603957,5,6.5,32,bw,99.7873230414,2019_jul_12_1702,017,256,20,5,mattin,Experiment_EEG_version,20,
Living_Things,../experiment_stimuli/bw_bc_bl/Living_Things/Animals/tiger_9.jpg,Animals,0,tiger,0,95,95,84,354.968981793,V_nV,1,354.992336087,356.231631167,0,2,0.601536309347,356.853753567,1,1,0.100452936022,5,6.0,32,bw,99.7873230414,2019_jul_12_1702,017,256,20,5,mattin,Experiment_EEG_version,20,
