category,probe_path,subcategory,fixation_duration,label,trials.thisRepN,trials.thisTrialN,trials.thisN,trials.thisIndex,image_onset_time,response_window,correctAns,probe_onset,discrim_resptime,response.corr,response.keys,response.rt,visible_resptime,visible.keys,visible.corr,visible.rt,probeFrames,jitter2,n_square,experiment_color,frameRate,date,session,image_size,premask_dur,probeFrames,participant,expName,postmask_dur,
Living_Things,../experiment_stimuli/bw_bc_bl/Living_Things/Insects/ladybird_16.jpg,Insects,0,ladybird,0,0,0,45,3.73982432974,V_nV,1,3.77228022227,5.03254200099,1,1,1.16276492411,6.226134222,2,0,0.100491247838,5,6.0,32,bw,99.7831676902,2019_jul_12_1709,018,256,20,5,mattin,Experiment_EEG_version,20,
Nonliving_Things,../experiment_stimuli/bw_bc_bl/Nonliving_Things/Musical_Inst/drum_16.jpg,Musical_Inst,0,drum,0,1,1,25,8.05924852076,nV_V,1,8.0856944737,9.34192190529,1,1,0.5213668996,9.88384324219,2,0,0.100508676143,5,6.5,32,bw,99.7831676902,2019_jul_12_1709,018,256,20,5,mattin,Experiment_EEG_version,20,
Living_Things,../experiment_stimuli/bw_bc_bl/Living_Things/Insects/scorpion_17.jpg,Insects,0,scorpion,0,2,2,73,11.717202907,nV_V,2,11.7328204124,12.979862788,1,2,0.120481326012,13.1208856944,2,0,2.5557909389,5,6.0,32,bw,99.7831676902,2019_jul_12_1709,018,256,20,5,mattin,Experiment_EEG_version,20,
Living_Things,../experiment_stimuli/bw_bc_bl/Living_Things/Birds/toucan_9.jpg,Birds,0,toucan,0,3,3,85,17.4095898056,nV_V,2,17.4282496995,18.6622154899,1,2,0.0102474011946,18.6929973096,2,0,0.230726021575,5,6.5,32,bw,99.7831676902,2019_jul_12_1709,018,256,20,5,mattin,Experiment_EEG_version,20,
Nonliving_Things,../experiment_stimuli/bw_bc_bl/Nonliving_Things/Furniture/wardrobe_21.jpg,Furniture,0,wardrobe,0,4,4,93,20.6566624471,V_nV,2,20.6711281454,21.8992654311,1,2,0.210686301114,22.130511462,2,0,0.150544492295,5,6.0,32,bw,99.7831676902,2019_jul_12_1709,018,256,20,5,mattin,Experiment_EEG_version,20,
Nonliving_Things,../experiment_stimuli/bw_bc_bl/Nonliving_Things/Vehicles/plane_1.jpg,Vehicles,0,plane,0,5,5,64,24.0139769458,nV_V,1,24.0377324389,25.266601416,0,2,0.120482976548,25.4076364089,1,1,0.561442228965,5,6.0,32,bw,99.7831676902,2019_jul_12_1709,018,256,20,5,mattin,Experiment_EEG_version,20,
Living_Things,../experiment_stimuli/bw_bc_bl/Living_Things/Marine_creatures/shark_20.jpg,Marine_creatures,0,shark,0,6,6,75,27.7020089978,nV_V,2,27.7237036745,28.9746722337,1,2,0.210686556529,29.2058977652,1,1,0.120482243598,5,6.0,32,bw,99.7831676902,2019_jul_12_1709,018,256,20,5,mattin,Experiment_EEG_version,20,
Nonliving_Things,../experiment_stimuli/bw_bc_bl/Nonliving_Things/Buildings/granary_16.jpg,Buildings,0,granary,0,7,7,35,31.0593092449,V_nV,2,31.0652211327,32.3319791388,1,2,0.67169007496,33.0242249852,2,0,0.711771742208,5,6.5,32,bw,99.7831676902,2019_jul_12_1709,018,256,20,5,mattin,Experiment_EEG_version,20,
Living_Things,../experiment_stimuli/bw_bc_bl/Living_Things/Animals/giraffe_10.jpg,Animals,0,giraffe,0,8,8,32,35.4689150271,nV_V,2,35.4878327376,36.7415808684,1,2,0.992395374691,37.7545187026,2,0,0.150559717789,5,7.0,32,bw,99.7831676902,2019_jul_12_1709,018,256,20,5,mattin,Experiment_EEG_version,20,
Living_Things,../experiment_stimuli/bw_bc_bl/Living_Things/Birds/ostrich_4.jpg,Birds,0,ostrich,0,9,9,56,39.6379887352,V_nV,1,39.6513555469,40.8906239159,0,2,0.0202699701767,40.9314371543,2,0,0.13050398184,5,6.0,32,bw,99.7831676902,2019_jul_12_1709,018,256,20,5,mattin,Experiment_EEG_version,20,
Nonliving_Things,../experiment_stimuli/bw_bc_bl/Nonliving_Things/Furniture/lamp_9.jpg,Furniture,0,lamp,0,10,10,46,42.794871154,nV_V,1,42.8113847359,44.0474984397,0,2,0.110467723105,44.1785073483,2,0,0.140523998067,5,7.5,32,bw,99.7831676902,2019_jul_12_1709,018,256,20,5,mattin,Experiment_EEG_version,20,
Living_Things,../experiment_stimuli/bw_bc_bl/Living_Things/Marine_creatures/manatee_13.jpg,Marine_creatures,0,manatee,0,11,11,52,46.051953451,nV_V,2,46.07418216,47.294562367,1,2,0.58149411506,47.8965979645,1,1,0.0202622220386,5,6.0,32,bw,99.7831676902,2019_jul_12_1709,018,256,20,5,mattin,Experiment_EEG_version,20,
Nonliving_Things,../experiment_stimuli/bw_bc_bl/Nonliving_Things/Buildings/castle_22.jpg,Buildings,0,castle,0,12,12,12,49.6497843214,V_nV,2,49.6545548416,50.8923915343,0,1,0.501314073801,51.4142627823,1,1,0.461240756558,5,6.0,32,bw,99.7831676902,2019_jul_12_1709,018,256,20,5,mattin,Experiment_EEG_version,20,
Living_Things,../experiment_stimuli/bw_bc_bl/Living_Things/Birds/magpie_19.jpg,Birds,0,magpie,0,13,13,51,53.6084098122,nV_V,2,53.6223080955,54.8911012942,1,2,0.45122337155,55.3628787457,2,0,0.401098090457,5,6.0,32,bw,99.7831676902,2019_jul_12_1709,018,256,20,5,mattin,Experiment_EEG_version,20,
Nonliving_Things,../experiment_stimuli/bw_bc_bl/Nonliving_Things/Tools/hammer_1.jpg,Tools,0,hammer,0,14,14,37,57.4969258497,nV_V,1,57.5166393863,58.769542312,0,2,0.591518668924,59.3816325532,1,1,0.150607130257,5,6.0,32,bw,99.7831676902,2019_jul_12_1709,018,256,20,5,mattin,Experiment_EEG_version,20,
Nonliving_Things,../experiment_stimuli/bw_bc_bl/Nonliving_Things/Kitchen_Uten/frying-pan_10.jpg,Kitchen_Uten,0,frying-pan,0,15,15,31,61.2650854581,V_nV,2,61.3051254719,62.5878604569,1,2,0.601536226925,63.2099396358,3,0,0.140372608788,5,7.0,32,bw,99.7831676902,2019_jul_12_1709,018,256,20,5,mattin,Experiment_EEG_version,20,
Living_Things,../experiment_stimuli/bw_bc_bl/Living_Things/Birds/sparrow_9.jpg,Birds,0,sparrow,0,16,16,79,65.0833893248,V_nV,1,65.1016006561,66.3560690985,0,2,0.530747788027,66.9080313991,2,0,0.3610065924,5,6.5,32,bw,99.7831676902,2019_jul_12_1709,018,256,20,5,mattin,Experiment_EEG_version,20,
Living_Things,../experiment_stimuli/bw_bc_bl/Living_Things/Birds/goldfinch_10.jpg,Birds,0,goldfinch,0,17,17,33,69.0019198633,nV_V,2,69.023630213,70.264582718,0,1,0.491140544182,70.7762754965,1,1,0.1605927411,5,6.5,32,bw,99.7831676902,2019_jul_12_1709,018,256,20,5,mattin,Experiment_EEG_version,20,
Living_Things,../experiment_stimuli/bw_bc_bl/Living_Things/Birds/goose_20.jpg,Birds,0,goose,0,18,18,34,72.6699162393,nV_V,2,72.6897767442,73.9425791935,1,2,0.601557952119,74.5646993869,3,0,0.190635486273,5,6.5,32,bw,99.7831676902,2019_jul_12_1709,018,256,20,5,mattin,Experiment_EEG_version,20,
Living_Things,../experiment_stimuli/bw_bc_bl/Living_Things/Animals/elephant_9.jpg,Animals,0,elephant,0,19,19,27,76.4882231622,V_nV,1,76.5078642224,77.7308399996,1,1,0.771910351701,78.5233045702,2,0,0.120338188717,5,7.0,32,bw,99.7831676902,2019_jul_12_1709,018,256,20,5,mattin,Experiment_EEG_version,20,
Living_Things,../experiment_stimuli/bw_bc_bl/Living_Things/Animals/turtle_19.jpg,Animals,0,turtle,0,20,20,90,80.3766899069,nV_V,2,80.3942881094,81.619296842,0,1,0.491298497422,82.1311942721,2,0,0.150550875114,5,7.0,32,bw,99.7831676902,2019_jul_12_1709,018,256,20,5,mattin,Experiment_EEG_version,20,
Living_Things,../experiment_stimuli/bw_bc_bl/Living_Things/Birds/penguin_10.jpg,Birds,0,penguin,0,21,21,61,84.0146175423,nV_V,2,84.0388725975,85.2672392491,1,2,1.15275307302,86.4405520675,1,1,0.140540667344,5,6.0,32,bw,99.7831676902,2019_jul_12_1709,018,256,20,5,mattin,Experiment_EEG_version,20,
Nonliving_Things,../experiment_stimuli/bw_bc_bl/Nonliving_Things/Musical_Inst/violin_22.jpg,Musical_Inst,0,violin,0,22,22,92,88.3139704184,V_nV,2,88.3338548706,89.5666011744,1,2,1.18280517496,90.7699574784,1,1,0.180638037156,5,6.0,32,bw,99.7831676902,2019_jul_12_1709,018,256,20,5,mattin,Experiment_EEG_version,20,
Nonliving_Things,../experiment_stimuli/bw_bc_bl/Nonliving_Things/Buildings/church_20.jpg,Buildings,0,church,0,23,23,17,92.6834808723,V_nV,2,92.7044236474,93.9561559127,1,2,0.791953952052,94.7686740726,2,0,0.340982130729,5,6.5,32,bw,99.7831676902,2019_jul_12_1709,018,256,20,5,mattin,Experiment_EEG_version,20,
Living_Things,../experiment_stimuli/bw_bc_bl/Living_Things/Birds/partridge_23.jpg,Birds,0,partridge,0,24,24,59,96.8425440865,nV_V,2,96.8578502494,98.1051925241,1,2,0.751863431418,98.8775998103,3,0,0.14051726507,5,6.5,32,bw,99.7831676902,2019_jul_12_1709,018,256,20,5,mattin,Experiment_EEG_version,20,
Nonliving_Things,../experiment_stimuli/bw_bc_bl/Nonliving_Things/Furniture/rocking-chair_12.jpg,Furniture,0,rocking-chair,0,25,25,69,100.751052123,nV_V,1,100.766042722,101.993665784,1,1,0.441211392405,102.45543141,1,1,0.190631039208,5,6.0,32,bw,99.7831676902,2019_jul_12_1709,018,256,20,5,mattin,Experiment_EEG_version,20,
Nonliving_Things,../experiment_stimuli/bw_bc_bl/Nonliving_Things/Furniture/sofa_4.jpg,Furniture,0,sofa,0,26,26,78,104.378950919,nV_V,1,104.395781614,105.631582017,1,1,0.0302877046634,105.692443735,1,1,0.230714987963,5,6.5,32,bw,99.7831676902,2019_jul_12_1709,018,256,20,5,mattin,Experiment_EEG_version,20,
Nonliving_Things,../experiment_stimuli/bw_bc_bl/Nonliving_Things/Furniture/couch_23.jpg,Furniture,0,couch,0,27,27,19,107.656086023,V_nV,2,107.67412263,108.928762436,0,1,0.401114101056,109.350433948,2,0,0.20068710763,5,6.5,32,bw,99.7831676902,2019_jul_12_1709,018,256,20,5,mattin,Experiment_EEG_version,20,
Living_Things,../experiment_stimuli/bw_bc_bl/Living_Things/Marine_creatures/sperm-whale_10.jpg,Marine_creatures,0,sperm-whale,0,28,28,80,111.283987145,V_nV,1,111.304051182,112.54663773,1,1,0.441200667061,113.00841068,2,0,0.0904198859353,5,6.5,32,bw,99.7831676902,2019_jul_12_1709,018,256,20,5,mattin,Experiment_EEG_version,20,
Nonliving_Things,../experiment_stimuli/bw_bc_bl/Nonliving_Things/Kitchen_Uten/small-saucepan_13.jpg,Kitchen_Uten,0,small-saucepan,0,29,29,77,114.831714389,nV_V,1,114.848724221,116.084338581,1,1,0.481273206417,116.596187643,2,0,0.190477645956,5,6.0,32,bw,99.7831676902,2019_jul_12_1709,018,256,20,5,mattin,Experiment_EEG_version,20,
Nonliving_Things,../experiment_stimuli/bw_bc_bl/Nonliving_Things/Buildings/mill_1.jpg,Buildings,0,mill,0,30,30,53,118.519740467,nV_V,1,118.544176407,119.772374403,1,1,0.15054937196,119.943487268,2,0,0.12048970582,5,6.0,32,bw,99.7831676902,2019_jul_12_1709,018,256,20,5,mattin,Experiment_EEG_version,20,
Living_Things,../experiment_stimuli/bw_bc_bl/Living_Things/Marine_creatures/whale_6.jpg,Marine_creatures,0,whale,0,31,31,94,121.796872342,V_nV,1,121.802775895,123.0294619,1,1,0.130514470162,123.18052775,1,1,0.100431187777,5,6.0,32,bw,99.7831676902,2019_jul_12_1709,018,256,20,5,mattin,Experiment_EEG_version,20,
Nonliving_Things,../experiment_stimuli/bw_bc_bl/Nonliving_Things/Vehicles/tractor_22.jpg,Vehicles,0,tractor,0,32,32,86,125.013887825,nV_V,1,125.037655758,126.296578529,0,2,0.120707316091,126.437845357,1,1,0.110470012529,5,8.0,32,bw,99.7831676902,2019_jul_12_1709,018,256,20,5,mattin,Experiment_EEG_version,20,
Living_Things,../experiment_stimuli/bw_bc_bl/Living_Things/Birds/pigeon_17.jpg,Birds,0,pigeon,0,33,33,63,128.28099768,V_nV,1,128.294993199,129.583735018,1,1,0.350990075618,129.955270474,2,0,0.190480856225,5,7.5,32,bw,99.7831676902,2019_jul_12_1709,018,256,20,5,mattin,Experiment_EEG_version,20,
Living_Things,../experiment_stimuli/bw_bc_bl/Living_Things/Birds/rooster_5.jpg,Birds,0,rooster,0,34,34,70,131.878834809,nV_V,2,131.901581893,133.171544349,1,2,0.531376690837,133.723466541,2,0,0.180603680434,5,6.0,32,bw,99.7831676902,2019_jul_12_1709,018,256,20,5,mattin,Experiment_EEG_version,20,
Nonliving_Things,../experiment_stimuli/bw_bc_bl/Nonliving_Things/Musical_Inst/piano__21.jpg,Musical_Inst,0,piano,0,35,35,62,135.637026179,nV_V,1,135.65636863,136.9197073,1,1,0.411133445101,137.351403336,2,0,0.0703681048471,5,6.5,32,bw,99.7831676902,2019_jul_12_1709,018,256,20,5,mattin,Experiment_EEG_version,20,
Living_Things,../experiment_stimuli/bw_bc_bl/Living_Things/Animals/zebra_6.jpg,Animals,0,zebra,0,36,36,95,139.154673542,V_nV,1,139.174150769,140.427345711,1,1,0.45121673611,140.899107034,2,0,0.0503370307852,5,7.0,32,bw,99.7831676902,2019_jul_12_1709,018,256,20,5,mattin,Experiment_EEG_version,20,
Living_Things,../experiment_stimuli/bw_bc_bl/Living_Things/Birds/owl_20.jpg,Birds,0,owl,0,37,37,57,142.682353519,V_nV,1,142.706475061,143.955033906,0,2,0.120484175859,144.096081124,1,1,0.310895965435,5,6.0,32,bw,99.7831676902,2019_jul_12_1709,018,256,20,5,mattin,Experiment_EEG_version,20,
Living_Things,../experiment_stimuli/bw_bc_bl/Living_Things/Animals/rhino_19.jpg,Animals,0,rhino,0,38,38,68,146.139882332,V_nV,1,146.160932234,147.422573796,0,2,0.0804254931863,147.523583677,1,1,0.150596543914,5,7.5,32,bw,99.7831676902,2019_jul_12_1709,018,256,20,5,mattin,Experiment_EEG_version,20,
Nonliving_Things,../experiment_stimuli/bw_bc_bl/Nonliving_Things/Vehicles/ship_18.jpg,Vehicles,0,ship,0,39,39,76,149.407009811,nV_V,1,149.439150522,150.709733559,1,1,0.541404635878,151.271700572,2,0,0.0403098561801,5,6.0,32,bw,99.7831676902,2019_jul_12_1709,018,256,20,5,mattin,Experiment_EEG_version,20,
Living_Things,../experiment_stimuli/bw_bc_bl/Living_Things/Birds/kiwi_6.jpg,Birds,0,kiwi,0,40,40,44,153.044918593,V_nV,1,153.061808987,154.32761088,0,2,0.451205115998,154.79936579,1,1,0.120478743687,5,6.5,32,bw,99.7831676902,2019_jul_12_1709,018,256,20,5,mattin,Experiment_EEG_version,20,
Nonliving_Things,../experiment_stimuli/bw_bc_bl/Nonliving_Things/Tools/axe_6.jpg,Tools,0,axe,0,41,41,3,156.652775927,V_nV,2,156.676772561,157.955510325,1,2,0.751703688875,158.727757038,2,0,0.130501594394,5,6.0,32,bw,99.7831676902,2019_jul_12_1709,018,256,20,5,mattin,Experiment_EEG_version,20,
Living_Things,../experiment_stimuli/bw_bc_bl/Living_Things/Birds/seagull_5.jpg,Birds,0,seagull,0,42,42,74,160.591353637,nV_V,2,160.611506045,161.864666517,1,2,0.381104113301,162.265682165,2,0,0.200659025228,5,7.5,32,bw,99.7831676902,2019_jul_12_1709,018,256,20,5,mattin,Experiment_EEG_version,20,
Nonliving_Things,../experiment_stimuli/bw_bc_bl/Nonliving_Things/Furniture/armchair_20.jpg,Furniture,0,armchair,0,43,43,2,164.199207084,V_nV,2,164.216649491,165.471876629,1,2,0.150557619287,165.642974546,2,0,0.150559702655,5,6.5,32,bw,99.7831676902,2019_jul_12_1709,018,256,20,5,mattin,Experiment_EEG_version,20,
Nonliving_Things,../experiment_stimuli/bw_bc_bl/Nonliving_Things/Vehicles/motorbike_25.jpg,Vehicles,0,motorbike,0,44,44,54,167.52648036,nV_V,1,167.555838132,168.799121717,0,2,0.150563830277,168.970238624,2,0,0.120473581599,5,7.5,32,bw,99.7831676902,2019_jul_12_1709,018,256,20,5,mattin,Experiment_EEG_version,20,
Living_Things,../experiment_stimuli/bw_bc_bl/Living_Things/Marine_creatures/crab_18.jpg,Marine_creatures,0,crab,0,45,45,21,170.823648727,nV_V,2,170.84217422,172.076260491,1,2,0.160578711424,172.257401256,1,1,0.100500040688,5,8.0,32,bw,99.7831676902,2019_jul_12_1709,018,256,20,5,mattin,Experiment_EEG_version,20,
Living_Things,../experiment_stimuli/bw_bc_bl/Living_Things/Marine_creatures/narwhal_13.jpg,Marine_creatures,0,narwhal,0,46,46,55,174.090755477,nV_V,2,174.111065894,175.364363887,1,2,0.491308263969,175.875276456,2,0,0.230721702334,5,8.0,32,bw,99.7831676902,2019_jul_12_1709,018,256,20,5,mattin,Experiment_EEG_version,20,
Living_Things,../experiment_stimuli/bw_bc_bl/Living_Things/Animals/tiger_18.jpg,Animals,0,tiger,0,47,47,84,177.838918033,nV_V,2,177.858368501,179.111575777,0,1,0.561450243695,179.69360113,1,1,0.210678132018,5,6.0,32,bw,99.7831676902,2019_jul_12_1709,018,256,20,5,mattin,Experiment_EEG_version,20,
Living_Things,../experiment_stimuli/bw_bc_bl/Living_Things/Marine_creatures/lobster_11.jpg,Marine_creatures,0,lobster,0,48,48,49,181.637187743,V_nV,1,181.655014781,182.939913547,0,2,0.421143281041,183.381654017,2,0,0.180610589916,5,6.0,32,bw,99.7831676902,2019_jul_12_1709,018,256,20,5,mattin,Experiment_EEG_version,20,
Living_Things,../experiment_stimuli/bw_bc_bl/Living_Things/Birds/pelican_14.jpg,Birds,0,pelican,0,49,49,60,185.295143569,V_nV,1,185.318505382,186.587856499,1,1,0.58149142703,187.18990254,2,0,0.0603586072102,5,7.0,32,bw,99.7831676902,2019_jul_12_1709,018,256,20,5,mattin,Experiment_EEG_version,20,
Nonliving_Things,../experiment_stimuli/bw_bc_bl/Nonliving_Things/Kitchen_Uten/coking-pot_22.jpg,Kitchen_Uten,0,coking-pot,0,50,50,18,188.983177357,V_nV,2,189.023336565,190.285911188,1,2,0.511346488958,190.817819268,3,0,0.541416015709,5,8.0,32,bw,99.7831676902,2019_jul_12_1709,018,256,20,5,mattin,Experiment_EEG_version,20,
Living_Things,../experiment_stimuli/bw_bc_bl/Living_Things/Birds/barn-owl_23.jpg,Birds,0,barn-owl,0,51,51,4,193.092121069,nV_V,2,193.109917073,194.354773555,1,2,0.270815907046,194.646168628,1,1,0.150567025412,5,6.5,32,bw,99.7831676902,2019_jul_12_1709,018,256,20,5,mattin,Experiment_EEG_version,20,
Nonliving_Things,../experiment_stimuli/bw_bc_bl/Nonliving_Things/Furniture/chair_0.jpg,Furniture,0,chair,0,52,52,15,196.529603356,nV_V,1,196.544276398,197.81230162,1,1,0.401095842011,198.233941655,2,0,0.0904156567995,5,6.0,32,bw,99.7831676902,2019_jul_12_1709,018,256,20,5,mattin,Experiment_EEG_version,20,
Living_Things,../experiment_stimuli/bw_bc_bl/Living_Things/Marine_creatures/killer-whale_22.jpg,Marine_creatures,0,killer-whale,0,53,53,43,200.057298491,V_nV,1,200.062423237,201.31994688,1,1,0.511180655798,201.851670797,2,0,0.0703836726025,5,6.0,32,bw,99.7831676902,2019_jul_12_1709,018,256,20,5,mattin,Experiment_EEG_version,20,
Nonliving_Things,../experiment_stimuli/bw_bc_bl/Nonliving_Things/Furniture/Chest-of-drawers_7.jpg,Furniture,0,Chest-of-drawers,0,54,54,0,203.655118268,V_nV,2,203.675120267,204.917770506,1,2,0.110479279421,205.048799911,2,0,0.170586927095,5,6.0,32,bw,99.7831676902,2019_jul_12_1709,018,256,20,5,mattin,Experiment_EEG_version,20,
Nonliving_Things,../experiment_stimuli/bw_bc_bl/Nonliving_Things/Furniture/bedside-table_21.jpg,Furniture,0,bedside-table,0,55,55,6,206.952294593,V_nV,2,206.976405763,208.214958617,1,2,0.491134270094,208.726643719,2,0,0.140578614315,5,6.5,32,bw,99.7831676902,2019_jul_12_1709,018,256,20,5,mattin,Experiment_EEG_version,20,
Nonliving_Things,../experiment_stimuli/bw_bc_bl/Nonliving_Things/Furniture/lectern_24.jpg,Furniture,0,lectern,0,56,56,47,210.600244839,V_nV,2,210.620097896,211.842850969,1,2,0.541409718571,212.404811496,1,1,0.16056562122,5,7.5,32,bw,99.7831676902,2019_jul_12_1709,018,256,20,5,mattin,Experiment_EEG_version,20,
Nonliving_Things,../experiment_stimuli/bw_bc_bl/Nonliving_Things/Vehicles/van_19.jpg,Vehicles,0,van,0,57,57,91,214.298288463,nV_V,1,214.333498626,215.570970985,0,2,0.280838479521,215.872387176,1,1,0.130503425375,5,6.0,32,bw,99.7831676902,2019_jul_12_1709,018,256,20,5,mattin,Experiment_EEG_version,20,
Nonliving_Things,../experiment_stimuli/bw_bc_bl/Nonliving_Things/Musical_Inst/tuba_21.jpg,Musical_Inst,0,tuba,0,58,58,89,217.735780826,nV_V,1,217.75606962,218.998436354,1,1,0.421144728549,219.440124839,3,0,0.200657216599,5,6.0,32,bw,99.7831676902,2019_jul_12_1709,018,256,20,5,mattin,Experiment_EEG_version,20,
Living_Things,../experiment_stimuli/bw_bc_bl/Living_Things/Insects/dragonfly_0.jpg,Insects,0,dragonfly,0,59,59,24,221.373700957,nV_V,2,221.38962493,222.616308847,0,1,0.551437358838,223.188309361,2,0,0.140558065381,5,7.0,32,bw,99.7831676902,2019_jul_12_1709,018,256,20,5,mattin,Experiment_EEG_version,20,
Nonliving_Things,../experiment_stimuli/bw_bc_bl/Nonliving_Things/Buildings/house_26.jpg,Buildings,0,house,0,60,60,41,225.061740009,nV_V,1,225.084460769,226.304346429,1,1,0.0704260931816,226.395322365,2,0,0.381051726639,5,8.0,32,bw,99.7831676902,2019_jul_12_1709,018,256,20,5,mattin,Experiment_EEG_version,20,
Living_Things,../experiment_stimuli/bw_bc_bl/Living_Things/Animals/lioness_19.jpg,Animals,0,lioness,0,61,61,48,228.509247983,V_nV,1,228.527381826,229.751846068,1,1,0.210705811856,229.983113159,1,1,0.190628644079,5,6.0,32,bw,99.7831676902,2019_jul_12_1709,018,256,20,5,mattin,Experiment_EEG_version,20,
Living_Things,../experiment_stimuli/bw_bc_bl/Living_Things/Animals/cat_10.jpg,Animals,0,cat,0,62,62,13,231.906633965,V_nV,1,231.922401089,233.169287504,1,1,0.110464294674,233.300301382,1,1,0.150542811491,5,6.0,32,bw,99.7831676902,2019_jul_12_1709,018,256,20,5,mattin,Experiment_EEG_version,20,
Nonliving_Things,../experiment_stimuli/bw_bc_bl/Nonliving_Things/Kitchen_Uten/teapot_23.jpg,Kitchen_Uten,0,teapot,0,63,63,83,235.1837724,V_nV,2,235.201193799,236.456445745,1,2,0.711770768277,237.188767984,2,0,0.170589449815,5,7.0,32,bw,99.7831676902,2019_jul_12_1709,018,256,20,5,mattin,Experiment_EEG_version,20,
Living_Things,../experiment_stimuli/bw_bc_bl/Living_Things/Marine_creatures/dolphin_9.jpg,Marine_creatures,0,dolphin,0,64,64,23,239.092285647,V_nV,1,239.108510947,240.344912768,0,2,0.421143138083,240.786621738,2,0,0.130550921196,5,6.5,32,bw,99.7831676902,2019_jul_12_1709,018,256,20,5,mattin,Experiment_EEG_version,20,
Living_Things,../experiment_stimuli/bw_bc_bl/Living_Things/Birds/hen_9.jpg,Birds,0,hen,0,65,65,38,242.650032403,nV_V,2,242.654768563,243.882619686,0,1,0.0302967459429,243.943508175,1,1,0.260792085901,5,7.5,32,bw,99.7831676902,2019_jul_12_1709,018,256,20,5,mattin,Experiment_EEG_version,20,
Nonliving_Things,../experiment_stimuli/bw_bc_bl/Nonliving_Things/Buildings/cathedral_16.jpg,Buildings,0,cathedral,0,66,66,14,245.937187498,nV_V,1,245.960208337,247.199839364,1,1,0.471248795278,247.691648735,2,0,0.0703750562388,5,6.0,32,bw,99.7831676902,2019_jul_12_1709,018,256,20,5,mattin,Experiment_EEG_version,20,
Nonliving_Things,../experiment_stimuli/bw_bc_bl/Nonliving_Things/Vehicles/boat_23.jpg,Vehicles,0,boat,0,67,67,7,249.49495043,nV_V,1,249.522578265,250.757599318,1,1,0.381059481995,251.159193553,2,0,0.120536400937,5,6.0,32,bw,99.7831676902,2019_jul_12_1709,018,256,20,5,mattin,Experiment_EEG_version,20,
Nonliving_Things,../experiment_stimuli/bw_bc_bl/Nonliving_Things/Vehicles/bus_4.jpg,Vehicles,0,bus,0,68,68,9,253.012595086,nV_V,1,253.036703992,254.265223752,0,2,0.381142191822,254.666937719,2,0,0.501322336961,5,7.0,32,bw,99.7831676902,2019_jul_12_1709,018,256,20,5,mattin,Experiment_EEG_version,20,
Living_Things,../experiment_stimuli/bw_bc_bl/Living_Things/Animals/cow_26.jpg,Animals,0,cow,0,69,69,20,256.901062214,V_nV,1,256.923848214,258.143669698,1,1,0.0301231951453,258.194344436,1,1,0.0803852642421,5,6.0,32,bw,99.7831676902,2019_jul_12_1709,018,256,20,5,mattin,Experiment_EEG_version,20,
Nonliving_Things,../experiment_stimuli/bw_bc_bl/Nonliving_Things/Buildings/factory_7.jpg,Buildings,0,factory,0,70,70,28,260.007832629,V_nV,2,260.024961968,261.260478129,0,1,0.140523257433,261.421541467,1,1,0.0904136344325,5,6.5,32,bw,99.7831676902,2019_jul_12_1709,018,256,20,5,mattin,Experiment_EEG_version,20,
Living_Things,../experiment_stimuli/bw_bc_bl/Living_Things/Marine_creatures/pomfret_13.jpg,Marine_creatures,0,pomfret,0,71,71,65,263.244879446,V_nV,1,263.260196098,264.527565492,1,1,0.811997030163,265.360132888,2,0,0.150570679922,5,6.0,32,bw,99.7831676902,2019_jul_12_1709,018,256,20,5,mattin,Experiment_EEG_version,20,
Nonliving_Things,../experiment_stimuli/bw_bc_bl/Nonliving_Things/Furniture/bookcase_2.jpg,Furniture,0,bookcase,0,72,72,8,267.243579688,nV_V,1,267.263346254,268.51625713,1,1,0.902186181629,269.438992182,3,0,0.68170876801,5,7.0,32,bw,99.7831676902,2019_jul_12_1709,018,256,20,5,mattin,Experiment_EEG_version,20,
Living_Things,../experiment_stimuli/bw_bc_bl/Living_Things/Birds/raven_8.jpg,Birds,0,raven,0,73,73,67,271.853614201,V_nV,1,271.876049016,273.106246035,1,1,0.330946772359,273.457755493,2,0,0.150570691098,5,6.5,32,bw,99.7831676902,2019_jul_12_1709,018,256,20,5,mattin,Experiment_EEG_version,20,
Living_Things,../experiment_stimuli/bw_bc_bl/Living_Things/Animals/lynx_24.jpg,Animals,0,lynx,0,74,74,50,275.341213484,V_nV,1,275.359464634,276.583825791,0,2,0.130516131874,276.73488533,1,1,0.110463825054,5,7.0,32,bw,99.7831676902,2019_jul_12_1709,018,256,20,5,mattin,Experiment_EEG_version,20,
Living_Things,../experiment_stimuli/bw_bc_bl/Living_Things/Birds/hummingbird_12.jpg,Birds,0,hummingbird,0,75,75,42,278.578260508,nV_V,2,278.596080527,279.850945251,1,2,0.109439858003,279.981955912,1,1,0.120487220818,5,6.5,32,bw,99.7831676902,2019_jul_12_1709,018,256,20,5,mattin,Experiment_EEG_version,20,
Nonliving_Things,../experiment_stimuli/bw_bc_bl/Nonliving_Things/Kitchen_Uten/cup_20.jpg,Kitchen_Uten,0,cup,0,76,76,22,281.835355117,nV_V,1,281.857637667,283.128082438,1,1,0.521360298386,283.66998117,2,0,0.371034916956,5,7.5,32,bw,99.7831676902,2019_jul_12_1709,018,256,20,5,mattin,Experiment_EEG_version,20,
Nonliving_Things,../experiment_stimuli/bw_bc_bl/Nonliving_Things/Furniture/filling-cabinet_19.jpg,Furniture,0,filling-cabinet,0,77,77,29,285.773929805,V_nV,2,285.795948486,287.056628437,0,1,0.842058173381,287.919247701,3,0,0.14057711768,5,7.0,32,bw,99.7831676902,2019_jul_12_1709,018,256,20,5,mattin,Experiment_EEG_version,20,
Nonliving_Things,../experiment_stimuli/bw_bc_bl/Nonliving_Things/Kitchen_Uten/pot_20.jpg,Kitchen_Uten,0,pot,0,78,78,66,289.792682894,V_nV,2,289.824974473,291.055339482,1,2,0.641619747272,291.717503595,2,0,0.150565894088,5,6.0,32,bw,99.7831676902,2019_jul_12_1709,018,256,20,5,mattin,Experiment_EEG_version,20,
Nonliving_Things,../experiment_stimuli/bw_bc_bl/Nonliving_Things/Buildings/palace_1.jpg,Buildings,0,palace,0,79,79,58,293.600970643,nV_V,1,293.606059363,294.843586743,0,2,0.0904469045345,294.954595517,2,0,0.150550067192,5,7.0,32,bw,99.7831676902,2019_jul_12_1709,018,256,20,5,mattin,Experiment_EEG_version,20,
Nonliving_Things,../experiment_stimuli/bw_bc_bl/Nonliving_Things/Vehicles/train_25.jpg,Vehicles,0,train,0,80,80,87,296.83803302,V_nV,2,296.86638475,298.090655295,1,2,0.511341977632,298.622556003,1,1,0.220703535248,5,6.5,32,bw,99.7831676902,2019_jul_12_1709,018,256,20,5,mattin,Experiment_EEG_version,20,
Nonliving_Things,../experiment_stimuli/bw_bc_bl/Nonliving_Things/Musical_Inst/saxophone_5.jpg,Musical_Inst,0,saxophone,0,81,81,72,300.576163218,V_nV,2,300.595496691,301.848836025,1,2,1.83423500857,303.703631903,3,0,0.120483296225,5,8.0,32,bw,99.7831676902,2019_jul_12_1709,018,256,20,5,mattin,Experiment_EEG_version,20,
Nonliving_Things,../experiment_stimuli/bw_bc_bl/Nonliving_Things/Vehicles/car_12.jpg,Vehicles,0,car,0,82,82,11,305.557014297,nV_V,1,305.572011895,306.799627852,0,2,0.552069013705,307.372255664,1,1,0.230712777469,5,8.0,32,bw,99.7831676902,2019_jul_12_1709,018,256,20,5,mattin,Experiment_EEG_version,20,
Living_Things,../experiment_stimuli/bw_bc_bl/Living_Things/Insects/butterfly_13.jpg,Insects,0,butterfly,0,83,83,10,309.335243985,V_nV,1,309.356442949,310.607909089,1,1,0.781930849422,311.41040441,3,0,0.210691394983,5,6.0,32,bw,99.7831676902,2019_jul_12_1709,018,256,20,5,mattin,Experiment_EEG_version,20,
Living_Things,../experiment_stimuli/bw_bc_bl/Living_Things/Animals/tapir_2.jpg,Animals,0,tapir,0,84,84,82,313.353990139,V_nV,1,313.372272551,314.606614932,0,2,0.0603611562401,314.687533386,1,1,0.150567067089,5,6.0,32,bw,99.7831676902,2019_jul_12_1709,018,256,20,5,mattin,Experiment_EEG_version,20,
Nonliving_Things,../experiment_stimuli/bw_bc_bl/Nonliving_Things/Kitchen_Uten/fondue_17.jpg,Kitchen_Uten,0,fondue,0,85,85,30,316.560970158,V_nV,2,316.579371945,317.833644793,0,1,0.581490329467,318.435686807,2,0,0.0904174684547,5,7.5,32,bw,99.7831676902,2019_jul_12_1709,018,256,20,5,mattin,Experiment_EEG_version,20,
Nonliving_Things,../experiment_stimuli/bw_bc_bl/Nonliving_Things/Musical_Inst/trumpet_14.jpg,Musical_Inst,0,trumpet,0,86,86,88,320.259033016,V_nV,2,320.290789787,321.531698331,1,2,0.531222737627,322.083474472,2,0,0.411140151322,5,6.5,32,bw,99.7831676902,2019_jul_12_1709,018,256,20,5,mattin,Experiment_EEG_version,20,
Living_Things,../experiment_stimuli/bw_bc_bl/Living_Things/Animals/hippopotamus_20.jpg,Animals,0,hippopotamus,0,87,87,39,324.23769189,V_nV,1,324.256878153,325.480299065,0,2,0.0804203692824,325.581279112,1,1,0.0703950710595,5,6.0,32,bw,99.7831676902,2019_jul_12_1709,018,256,20,5,mattin,Experiment_EEG_version,20,
Living_Things,../experiment_stimuli/bw_bc_bl/Living_Things/Animals/horse_24.jpg,Animals,0,horse,0,88,88,40,327.384539743,V_nV,1,327.41335493,328.64719144,1,1,0.350996091031,329.018757054,1,1,0.270814865595,5,8.0,32,bw,99.7831676902,2019_jul_12_1709,018,256,20,5,mattin,Experiment_EEG_version,20,
Nonliving_Things,../experiment_stimuli/bw_bc_bl/Nonliving_Things/Furniture/table_20.jpg,Furniture,0,table,0,89,89,81,331.022463645,nV_V,1,331.040837046,332.295132573,0,2,0.481291894102,332.797000107,1,1,0.140532291494,5,6.0,32,bw,99.7831676902,2019_jul_12_1709,018,256,20,5,mattin,Experiment_EEG_version,20,
Nonliving_Things,../experiment_stimuli/bw_bc_bl/Nonliving_Things/Kitchen_Uten/saucepan_0.jpg,Kitchen_Uten,0,saucepan,0,90,90,71,334.670402601,V_nV,2,334.691028598,335.973142304,1,2,0.60153742996,336.595243595,3,0,0.310898427386,5,8.0,32,bw,99.7831676902,2019_jul_12_1709,018,256,20,5,mattin,Experiment_EEG_version,20,
Nonliving_Things,../experiment_stimuli/bw_bc_bl/Nonliving_Things/Musical_Inst/guitar_17.jpg,Musical_Inst,0,guitar,0,91,91,36,338.639048965,nV_V,1,338.668635877,339.911719179,1,1,0.160583410412,340.092842497,1,1,0.140525009483,5,6.0,32,bw,99.7831676902,2019_jul_12_1709,018,256,20,5,mattin,Experiment_EEG_version,20,
Living_Things,../experiment_stimuli/bw_bc_bl/Living_Things/Animals/cheetah_9.jpg,Animals,0,cheetah,0,92,92,16,341.976336067,nV_V,2,341.991727236,343.259013605,0,1,0.0302978022955,343.309905374,1,1,0.340961743612,5,6.5,32,bw,99.7831676902,2019_jul_12_1709,018,256,20,5,mattin,Experiment_EEG_version,20,
Living_Things,../experiment_stimuli/bw_bc_bl/Living_Things/Birds/duck_2.jpg,Birds,0,duck,0,93,93,26,345.383736561,V_nV,1,345.403490849,346.70651556,1,1,0.541419289773,347.26850814,3,0,0.150542044546,5,6.0,32,bw,99.7831676902,2019_jul_12_1709,018,256,20,5,mattin,Experiment_EEG_version,20,
Nonliving_Things,../experiment_stimuli/bw_bc_bl/Nonliving_Things/Furniture/bed_9.jpg,Furniture,0,bed,0,94,94,5,349.151937372,nV_V,1,349.167918216,350.444657626,1,1,0.561455935705,351.02664957,3,0,0.140524088638,5,6.0,32,bw,99.7831676902,2019_jul_12_1709,018,256,20,5,mattin,Experiment_EEG_version,20,
Living_Things,../experiment_stimuli/bw_bc_bl/Living_Things/Animals/armadillo_0.jpg,Animals,0,armadillo,0,95,95,1,352.90009747,nV_V,2,352.904829791,354.162762603,1,2,0.771904475754,354.955210884,2,0,0.160626372555,5,7.0,32,bw,99.7831676902,2019_jul_12_1709,018,256,20,5,mattin,Experiment_EEG_version,20,
