category,probe_path,subcategory,fixation_duration,label,trials.thisRepN,trials.thisTrialN,trials.thisN,trials.thisIndex,image_onset_time,response_window,correctAns,probe_onset,discrim_resptime,response.corr,response.keys,response.rt,visible_resptime,visible.keys,visible.corr,visible.rt,probeFrames,jitter2,n_square,experiment_color,frameRate,date,session,image_size,premask_dur,probeFrames,participant,expName,postmask_dur,
Nonliving_Things,../experiment_stimuli/bw_bc_bl/Nonliving_Things/Furniture/couch_8.jpg,Furniture,0,couch,0,0,0,19,3.72478563059,nV_V,1,3.75337318447,5.01752001932,1,1,0.972347070929,6.02068902249,3,0,0.150592852617,5,6.5,32,bw,99.7797804216,2019_jul_12_1655,016,256,20,5,mattin,Experiment_EEG_version,20,
Living_Things,../experiment_stimuli/bw_bc_bl/Living_Things/Animals/lioness_17.jpg,Animals,0,lioness,0,1,1,48,7.90389418579,nV_V,2,7.92255014693,9.16654766095,1,2,0.571469470626,9.7585712946,2,0,0.421131356386,5,6.5,32,bw,99.7797804216,2019_jul_12_1655,016,256,20,5,mattin,Experiment_EEG_version,20,
Living_Things,../experiment_stimuli/bw_bc_bl/Living_Things/Animals/tapir_8.jpg,Animals,0,tapir,0,2,2,82,11.9126148194,V_nV,1,11.9306974297,13.1652423346,0,2,0.491297613829,13.6770963029,2,0,0.340959792724,5,6.0,32,bw,99.7797804216,2019_jul_12_1655,016,256,20,5,mattin,Experiment_EEG_version,20,
Nonliving_Things,../experiment_stimuli/bw_bc_bl/Nonliving_Things/Buildings/granary_21.jpg,Buildings,0,granary,0,3,3,35,15.7509881246,nV_V,1,15.7714220255,16.9935781274,0,2,0.0703688682988,17.0844947335,1,1,0.150532616302,5,8.0,32,bw,99.7797804216,2019_jul_12_1655,016,256,20,5,mattin,Experiment_EEG_version,20,
Living_Things,../experiment_stimuli/bw_bc_bl/Living_Things/Animals/turtle_8.jpg,Animals,0,turtle,0,4,4,90,18.9679815515,V_nV,1,18.9856869744,20.2406475323,0,2,0.140548148425,20.4017683053,1,1,0.10044564656,5,6.5,32,bw,99.7797804216,2019_jul_12_1655,016,256,20,5,mattin,Experiment_EEG_version,20,
Nonliving_Things,../experiment_stimuli/bw_bc_bl/Nonliving_Things/Buildings/cathedral_23.jpg,Buildings,0,cathedral,0,5,5,14,22.2351052484,V_nV,2,22.2522218656,23.5278018937,1,2,0.551432565786,24.0997899303,2,0,0.140519182431,5,6.0,32,bw,99.7797804216,2019_jul_12_1655,016,256,20,5,mattin,Experiment_EEG_version,20,
Nonliving_Things,../experiment_stimuli/bw_bc_bl/Nonliving_Things/Buildings/church_22.jpg,Buildings,0,church,0,6,6,17,25.9732256494,V_nV,2,25.9886651265,27.2559226949,1,2,0.531379202148,27.8078728381,3,0,0.120480973041,5,6.5,32,bw,99.7797804216,2019_jul_12_1655,016,256,20,5,mattin,Experiment_EEG_version,20,
Nonliving_Things,../experiment_stimuli/bw_bc_bl/Nonliving_Things/Vehicles/boat_11.jpg,Vehicles,0,boat,0,7,7,7,29.6612595245,nV_V,1,29.7027318084,30.9339434069,0,2,0.0403155705426,30.9948038207,1,1,0.180610326817,5,6.0,32,bw,99.7797804216,2019_jul_12_1655,016,256,20,5,mattin,Experiment_EEG_version,20,
Nonliving_Things,../experiment_stimuli/bw_bc_bl/Nonliving_Things/Kitchen_Uten/cup_11.jpg,Kitchen_Uten,0,cup,0,8,8,22,32.9083308615,nV_V,1,32.9310844818,34.1910203847,1,1,0.581486664014,34.7930628352,3,0,0.210689597996,5,6.0,32,bw,99.7797804216,2019_jul_12_1655,016,256,20,5,mattin,Experiment_EEG_version,20,
Nonliving_Things,../experiment_stimuli/bw_bc_bl/Nonliving_Things/Musical_Inst/trumpet_10.jpg,Musical_Inst,0,trumpet,0,9,9,88,36.7366694249,nV_V,1,36.7508621712,37.9892929026,1,1,0.471248005982,38.4811030074,2,0,0.100503330352,5,6.5,32,bw,99.7797804216,2019_jul_12_1655,016,256,20,5,mattin,Experiment_EEG_version,20,
Nonliving_Things,../experiment_stimuli/bw_bc_bl/Nonliving_Things/Buildings/palace_23.jpg,Buildings,0,palace,0,10,10,58,40.3144614203,V_nV,2,40.3284410448,41.5570672948,0,1,0.270811925642,41.848424549,2,0,0.0803972301073,5,8.0,32,bw,99.7797804216,2019_jul_12_1655,016,256,20,5,mattin,Experiment_EEG_version,20,
Nonliving_Things,../experiment_stimuli/bw_bc_bl/Nonliving_Things/Furniture/sofa_1.jpg,Furniture,0,sofa,0,11,11,78,43.6617367449,V_nV,2,43.682890984,44.9043467888,1,2,0.400941144675,45.3258401789,1,1,0.220688975416,5,6.5,32,bw,99.7797804216,2019_jul_12_1655,016,256,20,5,mattin,Experiment_EEG_version,20,
Living_Things,../experiment_stimuli/bw_bc_bl/Living_Things/Marine_creatures/dolphin_3.jpg,Marine_creatures,0,dolphin,0,12,12,23,47.279649873,V_nV,1,47.2960131185,48.5422833711,1,1,0.290857740445,48.8536977968,2,0,0.0703722629696,5,6.5,32,bw,99.7797804216,2019_jul_12_1655,016,256,20,5,mattin,Experiment_EEG_version,20,
Living_Things,../experiment_stimuli/bw_bc_bl/Living_Things/Animals/cow_3.jpg,Animals,0,cow,0,13,13,20,50.6569885665,V_nV,1,50.6855919661,51.9196188655,0,2,0.130494816229,52.0706786038,1,1,0.280907351291,5,6.5,32,bw,99.7797804216,2019_jul_12_1655,016,256,20,5,mattin,Experiment_EEG_version,20,
Living_Things,../experiment_stimuli/bw_bc_bl/Living_Things/Birds/goldfinch_13.jpg,Birds,0,goldfinch,0,14,14,33,54.0844323647,V_nV,1,54.1059165136,55.3671304141,1,1,0.451213217573,55.8389032341,2,0,0.100484683877,5,7.5,32,bw,99.7797804216,2019_jul_12_1655,016,256,20,5,mattin,Experiment_EEG_version,20,
Nonliving_Things,../experiment_stimuli/bw_bc_bl/Nonliving_Things/Furniture/rocking-chair_20.jpg,Furniture,0,rocking-chair,0,15,15,69,57.6722621392,nV_V,1,57.6944925773,58.9449213832,1,1,0.46123942174,59.4267153058,2,0,0.230711048236,5,6.5,32,bw,99.7797804216,2019_jul_12_1655,016,256,20,5,mattin,Experiment_EEG_version,20,
Living_Things,../experiment_stimuli/bw_bc_bl/Living_Things/Birds/partridge_6.jpg,Birds,0,partridge,0,16,16,59,61.3903575712,nV_V,2,61.3954992492,62.6429692032,0,1,0.451195217203,63.1147352112,2,0,0.0804518277291,5,6.0,32,bw,99.7797804216,2019_jul_12_1655,016,256,20,5,mattin,Experiment_EEG_version,20,
Nonliving_Things,../experiment_stimuli/bw_bc_bl/Nonliving_Things/Furniture/bedside-table_19.jpg,Furniture,0,bedside-table,0,17,17,6,64.9280414896,V_nV,2,64.9443286045,66.1806796966,0,1,0.350991211366,66.5522396904,2,0,0.33092862973,5,8.0,32,bw,99.7797804216,2019_jul_12_1655,016,256,20,5,mattin,Experiment_EEG_version,20,
Living_Things,../experiment_stimuli/bw_bc_bl/Living_Things/Birds/hummingbird_16.jpg,Birds,0,hummingbird,0,18,18,42,68.616074658,nV_V,2,68.6221181308,69.8486607494,0,1,0.0904112355784,69.9596245389,1,1,0.110450227279,5,8.0,32,bw,99.7797804216,2019_jul_12_1655,016,256,20,5,mattin,Experiment_EEG_version,20,
Nonliving_Things,../experiment_stimuli/bw_bc_bl/Nonliving_Things/Buildings/mill_20.jpg,Buildings,0,mill,0,19,19,53,71.8030188589,nV_V,1,71.8218521567,73.0756882303,1,1,0.441194693558,73.5374223534,2,0,0.0904655661434,5,7.5,32,bw,99.7797804216,2019_jul_12_1655,016,256,20,5,mattin,Experiment_EEG_version,20,
Nonliving_Things,../experiment_stimuli/bw_bc_bl/Nonliving_Things/Furniture/filling-cabinet_15.jpg,Furniture,0,filling-cabinet,0,20,20,29,75.3607680507,V_nV,2,75.3804320463,76.6234169395,1,2,0.391088750679,77.0350683376,1,1,0.170587246772,5,6.5,32,bw,99.7797804216,2019_jul_12_1655,016,256,20,5,mattin,Experiment_EEG_version,20,
Nonliving_Things,../experiment_stimuli/bw_bc_bl/Nonliving_Things/Buildings/factory_2.jpg,Buildings,0,factory,0,21,21,28,78.9385630421,V_nV,2,78.9630198434,80.2212465729,1,2,0.0503367600031,80.2921247366,1,1,0.13050928642,5,6.5,32,bw,99.7797804216,2019_jul_12_1655,016,256,20,5,mattin,Experiment_EEG_version,20,
Living_Things,../experiment_stimuli/bw_bc_bl/Living_Things/Insects/butterfly_24.jpg,Insects,0,butterfly,0,22,22,10,82.155551875,nV_V,2,82.1699011798,83.4482723281,1,2,0.871955995215,84.340790967,3,0,0.681703252718,5,7.5,32,bw,99.7797804216,2019_jul_12_1655,016,256,20,5,mattin,Experiment_EEG_version,20,
Nonliving_Things,../experiment_stimuli/bw_bc_bl/Nonliving_Things/Musical_Inst/tuba_19.jpg,Musical_Inst,0,tuba,0,23,23,89,86.7555721614,V_nV,2,86.7766759875,88.0182233208,1,2,1.48345370498,89.5222389631,3,0,0.310895645525,5,6.0,32,bw,99.7797804216,2019_jul_12_1655,016,256,20,5,mattin,Experiment_EEG_version,20,
Nonliving_Things,../experiment_stimuli/bw_bc_bl/Nonliving_Things/Tools/axe_26.jpg,Tools,0,axe,0,24,24,3,91.56604998,nV_V,1,91.5839496225,92.8086614599,1,1,0.511179028079,93.3404000117,2,0,0.0804008357227,5,6.5,32,bw,99.7797804216,2019_jul_12_1655,016,256,20,5,mattin,Experiment_EEG_version,20,
Living_Things,../experiment_stimuli/bw_bc_bl/Living_Things/Birds/kiwi_5.jpg,Birds,0,kiwi,0,25,25,44,95.1538588114,nV_V,2,95.1780758447,96.4064873978,0,1,0.531382145593,96.9584338793,2,0,0.090414656559,5,6.5,32,bw,99.7797804216,2019_jul_12_1655,016,256,20,5,mattin,Experiment_EEG_version,20,
Nonliving_Things,../experiment_stimuli/bw_bc_bl/Nonliving_Things/Furniture/lectern_23.jpg,Furniture,0,lectern,0,26,26,47,98.7817665914,nV_V,1,98.803210835,100.024378177,1,1,0.160411209334,100.215361062,1,1,0.120327436831,5,6.0,32,bw,99.7797804216,2019_jul_12_1655,016,256,20,5,mattin,Experiment_EEG_version,20,
Living_Things,../experiment_stimuli/bw_bc_bl/Living_Things/Birds/toucan_0.jpg,Birds,0,toucan,0,27,27,85,102.068918118,nV_V,2,102.090909788,103.331568541,0,1,0.150560830254,103.502681729,1,1,0.37104936433,5,6.0,32,bw,99.7797804216,2019_jul_12_1655,016,256,20,5,mattin,Experiment_EEG_version,20,
Nonliving_Things,../experiment_stimuli/bw_bc_bl/Nonliving_Things/Vehicles/motorbike_11.jpg,Vehicles,0,motorbike,0,28,28,54,105.606636055,nV_V,1,105.632603792,106.899337655,1,1,0.431167951785,107.351096589,3,0,1.26297605434,5,6.5,32,bw,99.7797804216,2019_jul_12_1655,016,256,20,5,mattin,Experiment_EEG_version,20,
Nonliving_Things,../experiment_stimuli/bw_bc_bl/Nonliving_Things/Kitchen_Uten/coking-pot_0.jpg,Kitchen_Uten,0,coking-pot,0,29,29,18,110.346945342,V_nV,2,110.351896293,111.589566404,1,2,0.651489182608,112.261588998,2,0,0.210675752023,5,6.0,32,bw,99.7797804216,2019_jul_12_1655,016,256,20,5,mattin,Experiment_EEG_version,20,
Living_Things,../experiment_stimuli/bw_bc_bl/Living_Things/Animals/giraffe_17.jpg,Animals,0,giraffe,0,30,30,32,114.205338387,nV_V,2,114.228253498,115.447970296,0,1,0.0902585342992,115.558764264,1,1,0.150547638535,5,6.0,32,bw,99.7797804216,2019_jul_12_1655,016,256,20,5,mattin,Experiment_EEG_version,20,
Living_Things,../experiment_stimuli/bw_bc_bl/Living_Things/Marine_creatures/sperm-whale_23.jpg,Marine_creatures,0,sperm-whale,0,31,31,80,117.442389606,V_nV,1,117.456608288,118.7150705,0,2,0.882144975942,119.617790187,3,0,0.571472598705,5,6.0,32,bw,99.7797804216,2019_jul_12_1655,016,256,20,5,mattin,Experiment_EEG_version,20,
Living_Things,../experiment_stimuli/bw_bc_bl/Living_Things/Birds/barn-owl_3.jpg,Birds,0,barn-owl,0,32,32,4,121.922148568,V_nV,1,121.941131623,123.174772459,0,2,0.0503238127567,123.245676528,1,1,0.100514247315,5,7.5,32,bw,99.7797804216,2019_jul_12_1655,016,256,20,5,mattin,Experiment_EEG_version,20,
Living_Things,../experiment_stimuli/bw_bc_bl/Living_Things/Birds/hen_26.jpg,Birds,0,hen,0,33,33,38,125.079020167,V_nV,1,125.096048198,126.361718073,1,1,0.451209947001,126.833473863,2,0,0.200648844941,5,7.5,32,bw,99.7797804216,2019_jul_12_1655,016,256,20,5,mattin,Experiment_EEG_version,20,
Nonliving_Things,../experiment_stimuli/bw_bc_bl/Nonliving_Things/Vehicles/tractor_14.jpg,Vehicles,0,tractor,0,34,34,86,128.767054181,V_nV,2,128.784055852,130.039725101,1,2,1.04248809977,131.102759337,2,0,0.180638901889,5,6.0,32,bw,99.7797804216,2019_jul_12_1655,016,256,20,5,mattin,Experiment_EEG_version,20,
Nonliving_Things,../experiment_stimuli/bw_bc_bl/Nonliving_Things/Vehicles/car_14.jpg,Vehicles,0,car,0,35,35,11,133.016300505,V_nV,2,133.041572388,134.288988222,1,2,0.461223906837,134.770750608,2,0,0.150533537613,5,8.0,32,bw,99.7797804216,2019_jul_12_1655,016,256,20,5,mattin,Experiment_EEG_version,20,
Living_Things,../experiment_stimuli/bw_bc_bl/Living_Things/Marine_creatures/whale_4.jpg,Marine_creatures,0,whale,0,36,36,94,136.654239509,V_nV,1,136.673090464,137.906860836,0,2,0.0603494495153,137.987758388,2,0,0.120489863679,5,6.0,32,bw,99.7797804216,2019_jul_12_1655,016,256,20,5,mattin,Experiment_EEG_version,20,
Living_Things,../experiment_stimuli/bw_bc_bl/Living_Things/Birds/rooster_15.jpg,Birds,0,rooster,0,37,37,70,139.841168597,V_nV,1,139.864102655,141.083772434,0,2,0.0302993175574,141.134622986,2,0,0.180610541254,5,8.0,32,bw,99.7797804216,2019_jul_12_1655,016,256,20,5,mattin,Experiment_EEG_version,20,
Living_Things,../experiment_stimuli/bw_bc_bl/Living_Things/Animals/cat_5.jpg,Animals,0,cat,0,38,38,13,143.048149556,V_nV,1,143.074068879,144.300776523,0,2,0.0603538819123,144.381699586,1,1,0.200655942317,5,6.5,32,bw,99.7797804216,2019_jul_12_1655,016,256,20,5,mattin,Experiment_EEG_version,20,
Living_Things,../experiment_stimuli/bw_bc_bl/Living_Things/Birds/goose_19.jpg,Birds,0,goose,0,39,39,34,146.315264825,nV_V,2,146.329492755,147.577916856,1,2,1.05251233745,148.650990999,2,0,0.431148963049,5,6.0,32,bw,99.7797804216,2019_jul_12_1655,016,256,20,5,mattin,Experiment_EEG_version,20,
Living_Things,../experiment_stimuli/bw_bc_bl/Living_Things/Birds/pigeon_11.jpg,Birds,0,pigeon,0,40,40,63,150.815063796,V_nV,1,150.829187641,152.067690631,1,1,0.200672577601,152.28890968,1,1,0.120485687163,5,7.5,32,bw,99.7797804216,2019_jul_12_1655,016,256,20,5,mattin,Experiment_EEG_version,20,
Living_Things,../experiment_stimuli/bw_bc_bl/Living_Things/Marine_creatures/shark_2.jpg,Marine_creatures,0,shark,0,41,41,75,154.142313547,V_nV,1,154.163220311,155.414978696,1,1,0.882146186428,156.317687748,2,0,0.260781157296,5,6.0,32,bw,99.7797804216,2019_jul_12_1655,016,256,20,5,mattin,Experiment_EEG_version,20,
Living_Things,../experiment_stimuli/bw_bc_bl/Living_Things/Birds/duck_15.jpg,Birds,0,duck,0,42,42,26,158.311393473,V_nV,1,158.339144832,159.5840536,1,1,0.431155744707,160.035761541,2,0,0.0904029160738,5,6.0,32,bw,99.7797804216,2019_jul_12_1655,016,256,20,5,mattin,Experiment_EEG_version,20,
Living_Things,../experiment_stimuli/bw_bc_bl/Living_Things/Marine_creatures/manatee_0.jpg,Marine_creatures,0,manatee,0,43,43,52,161.859117024,nV_V,2,161.879307021,163.11173852,1,2,0.501319611678,163.633605419,2,0,0.631589249941,5,6.5,32,bw,99.7797804216,2019_jul_12_1655,016,256,20,5,mattin,Experiment_EEG_version,20,
Nonliving_Things,../experiment_stimuli/bw_bc_bl/Nonliving_Things/Vehicles/ship_15.jpg,Vehicles,0,ship,0,44,44,76,165.998138517,nV_V,1,166.020444379,167.240739569,1,1,0.150540793082,167.411840757,1,1,0.110300563043,5,6.0,32,bw,99.7797804216,2019_jul_12_1655,016,256,20,5,mattin,Experiment_EEG_version,20,
Nonliving_Things,../experiment_stimuli/bw_bc_bl/Nonliving_Things/Vehicles/van_14.jpg,Vehicles,0,van,0,45,45,91,169.255216954,nV_V,1,169.284073384,170.51786588,1,1,0.200655777007,170.739075928,1,1,0.120497619268,5,7.5,32,bw,99.7797804216,2019_jul_12_1655,016,256,20,5,mattin,Experiment_EEG_version,20,
Living_Things,../experiment_stimuli/bw_bc_bl/Living_Things/Insects/scorpion_2.jpg,Insects,0,scorpion,0,46,46,73,172.592483145,nV_V,2,172.613282174,173.855139846,0,1,0.110463659512,173.986157672,2,0,0.120529577602,5,7.0,32,bw,99.7797804216,2019_jul_12_1655,016,256,20,5,mattin,Experiment_EEG_version,20,
Nonliving_Things,../experiment_stimuli/bw_bc_bl/Nonliving_Things/Vehicles/plane_20.jpg,Vehicles,0,plane,0,47,47,64,175.839562388,nV_V,1,175.861577787,177.092180065,1,1,0.842054913752,177.954812777,1,1,0.280823645182,5,6.0,32,bw,99.7797804216,2019_jul_12_1655,016,256,20,5,mattin,Experiment_EEG_version,20,
Nonliving_Things,../experiment_stimuli/bw_bc_bl/Nonliving_Things/Kitchen_Uten/teapot_25.jpg,Kitchen_Uten,0,teapot,0,48,48,83,179.968540959,nV_V,1,180.002896485,181.251241351,1,1,0.611573746894,181.883376828,1,1,0.200664059026,5,6.0,32,bw,99.7797804216,2019_jul_12_1655,016,256,20,5,mattin,Experiment_EEG_version,20,
Living_Things,../experiment_stimuli/bw_bc_bl/Living_Things/Birds/seagull_19.jpg,Birds,0,seagull,0,49,49,74,183.816924262,nV_V,2,183.838764186,185.099618037,1,2,0.651640346507,185.771803385,3,0,0.170583032304,5,6.5,32,bw,99.7797804216,2019_jul_12_1655,016,256,20,5,mattin,Experiment_EEG_version,20,
Living_Things,../experiment_stimuli/bw_bc_bl/Living_Things/Birds/sparrow_17.jpg,Birds,0,sparrow,0,50,50,79,187.675327424,nV_V,2,187.696972315,188.937973568,1,2,0.441190227633,189.399718105,2,0,0.651657665847,5,7.0,32,bw,99.7797804216,2019_jul_12_1655,016,256,20,5,mattin,Experiment_EEG_version,20,
Living_Things,../experiment_stimuli/bw_bc_bl/Living_Things/Animals/tiger_3.jpg,Animals,0,tiger,0,51,51,84,191.784270372,nV_V,2,191.80315729,193.036900383,0,1,0.270897109294,193.328453335,1,1,0.361001671292,5,6.5,32,bw,99.7797804216,2019_jul_12_1655,016,256,20,5,mattin,Experiment_EEG_version,20,
Nonliving_Things,../experiment_stimuli/bw_bc_bl/Nonliving_Things/Furniture/bookcase_22.jpg,Furniture,0,bookcase,0,52,52,8,195.422193548,nV_V,1,195.440243727,196.694863953,1,1,0.300886884565,197.016309937,1,1,0.160584962927,5,6.0,32,bw,99.7797804216,2019_jul_12_1655,016,256,20,5,mattin,Experiment_EEG_version,20,
Nonliving_Things,../experiment_stimuli/bw_bc_bl/Nonliving_Things/Tools/hammer_18.jpg,Tools,0,hammer,0,53,53,37,198.909785685,V_nV,2,198.939463908,200.212525941,1,2,0.882142058574,201.115241891,2,0,0.170611306792,5,6.5,32,bw,99.7797804216,2019_jul_12_1655,016,256,20,5,mattin,Experiment_EEG_version,20,
Living_Things,../experiment_stimuli/bw_bc_bl/Living_Things/Birds/penguin_13.jpg,Birds,0,penguin,0,54,54,61,203.018733855,nV_V,2,203.032419851,204.301429435,1,2,0.200677709188,204.522661855,1,1,0.411179485731,5,6.0,32,bw,99.7797804216,2019_jul_12_1655,016,256,20,5,mattin,Experiment_EEG_version,20,
Living_Things,../experiment_stimuli/bw_bc_bl/Living_Things/Marine_creatures/killer-whale_17.jpg,Marine_creatures,0,killer-whale,0,55,55,43,206.666688627,V_nV,1,206.685830406,207.97943668,0,2,0.86212309706,208.862143849,2,0,0.721637812676,5,6.0,32,bw,99.7797804216,2019_jul_12_1655,016,256,20,5,mattin,Experiment_EEG_version,20,
Nonliving_Things,../experiment_stimuli/bw_bc_bl/Nonliving_Things/Vehicles/train_3.jpg,Vehicles,0,train,0,56,56,87,211.316808721,nV_V,1,211.335337138,212.61954957,1,1,2.44554670597,215.08564131,3,0,0.270809647394,5,6.0,32,bw,99.7797804216,2019_jul_12_1655,016,256,20,5,mattin,Experiment_EEG_version,20,
Living_Things,../experiment_stimuli/bw_bc_bl/Living_Things/Birds/raven_20.jpg,Birds,0,raven,0,57,57,67,217.089404348,nV_V,2,217.107040004,218.36204699,1,2,0.781926289434,219.164565103,3,0,0.120477006538,5,6.5,32,bw,99.7797804216,2019_jul_12_1655,016,256,20,5,mattin,Experiment_EEG_version,20,
Nonliving_Things,../experiment_stimuli/bw_bc_bl/Nonliving_Things/Furniture/armchair_10.jpg,Furniture,0,armchair,0,58,58,2,221.017929523,nV_V,1,221.034540315,222.260533304,1,1,0.350987166166,222.632073065,2,0,0.230717010563,5,6.0,32,bw,99.7797804216,2019_jul_12_1655,016,256,20,5,mattin,Experiment_EEG_version,20,
Living_Things,../experiment_stimuli/bw_bc_bl/Living_Things/Birds/ostrich_2.jpg,Birds,0,ostrich,0,59,59,56,224.595719597,V_nV,1,224.615616594,225.8383501,1,1,0.0803997905459,225.939293053,1,1,0.120474356227,5,6.0,32,bw,99.7797804216,2019_jul_12_1655,016,256,20,5,mattin,Experiment_EEG_version,20,
Living_Things,../experiment_stimuli/bw_bc_bl/Living_Things/Marine_creatures/narwhal_12.jpg,Marine_creatures,0,narwhal,0,60,60,55,227.792678401,nV_V,2,227.811569909,229.055338159,1,2,1.10263249883,230.178533004,2,0,0.180617135018,5,6.0,32,bw,99.7797804216,2019_jul_12_1655,016,256,20,5,mattin,Experiment_EEG_version,20,
Living_Things,../experiment_stimuli/bw_bc_bl/Living_Things/Marine_creatures/crab_0.jpg,Marine_creatures,0,crab,0,61,61,21,232.092044056,nV_V,2,232.096897023,233.334659566,1,2,0.491298681824,233.846498012,2,0,0.140524825081,5,6.0,32,bw,99.7797804216,2019_jul_12_1655,016,256,20,5,mattin,Experiment_EEG_version,20,
Nonliving_Things,../experiment_stimuli/bw_bc_bl/Nonliving_Things/Musical_Inst/guitar_13.jpg,Musical_Inst,0,guitar,0,62,62,36,235.719944618,V_nV,2,235.737459577,236.972566991,1,2,0.170595802832,237.163727708,1,1,0.120523577556,5,7.5,32,bw,99.7797804216,2019_jul_12_1655,016,256,20,5,mattin,Experiment_EEG_version,20,
Living_Things,../experiment_stimuli/bw_bc_bl/Living_Things/Animals/lynx_17.jpg,Animals,0,lynx,0,63,63,50,239.017119274,V_nV,1,239.038001152,240.269747327,0,2,0.140368544962,240.430694812,1,1,0.110463512829,5,6.0,32,bw,99.7797804216,2019_jul_12_1655,016,256,20,5,mattin,Experiment_EEG_version,20,
Living_Things,../experiment_stimuli/bw_bc_bl/Living_Things/Marine_creatures/pomfret_17.jpg,Marine_creatures,0,pomfret,0,64,64,65,242.274209789,V_nV,1,242.288211395,243.56693343,1,1,0.481269417098,244.068758206,3,0,0.962315791519,5,6.0,32,bw,99.7797804216,2019_jul_12_1655,016,256,20,5,mattin,Experiment_EEG_version,20,
Living_Things,../experiment_stimuli/bw_bc_bl/Living_Things/Animals/armadillo_24.jpg,Animals,0,armadillo,0,65,65,1,246.763982643,nV_V,2,246.789570173,248.036672153,1,2,1.28301921883,249.350298408,2,0,0.130499816267,5,6.5,32,bw,99.7797804216,2019_jul_12_1655,016,256,20,5,mattin,Experiment_EEG_version,20,
Living_Things,../experiment_stimuli/bw_bc_bl/Living_Things/Insects/dragonfly_8.jpg,Insects,0,dragonfly,0,66,66,24,251.213707649,nV_V,2,251.227511256,252.45628652,0,1,0.260794717586,252.737648377,1,1,0.140520723769,5,7.5,32,bw,99.7797804216,2019_jul_12_1655,016,256,20,5,mattin,Experiment_EEG_version,20,
Living_Things,../experiment_stimuli/bw_bc_bl/Living_Things/Animals/elephant_2.jpg,Animals,0,elephant,0,67,67,27,254.611080067,V_nV,1,254.628951837,255.893769751,1,1,0.421139577636,256.335468293,3,0,0.12049842393,5,6.0,32,bw,99.7797804216,2019_jul_12_1655,016,256,20,5,mattin,Experiment_EEG_version,20,
Nonliving_Things,../experiment_stimuli/bw_bc_bl/Nonliving_Things/Kitchen_Uten/frying-pan_9.jpg,Kitchen_Uten,0,frying-pan,0,68,68,31,258.188867577,nV_V,1,258.227738855,259.461548595,0,2,0.601553786779,260.083662296,2,0,0.120482307393,5,8.0,32,bw,99.7797804216,2019_jul_12_1655,016,256,20,5,mattin,Experiment_EEG_version,20,
Nonliving_Things,../experiment_stimuli/bw_bc_bl/Nonliving_Things/Furniture/lamp_19.jpg,Furniture,0,lamp,0,69,69,46,261.937031483,V_nV,2,261.949788068,263.169613721,0,1,0.02026459435,263.210452944,1,1,0.100428181002,5,6.5,32,bw,99.7797804216,2019_jul_12_1655,016,256,20,5,mattin,Experiment_EEG_version,20,
Nonliving_Things,../experiment_stimuli/bw_bc_bl/Nonliving_Things/Musical_Inst/drum_14.jpg,Musical_Inst,0,drum,0,70,70,25,265.043803725,nV_V,1,265.073173391,266.326491831,1,1,0.0202820042614,266.367335596,1,1,0.120474799769,5,6.0,32,bw,99.7797804216,2019_jul_12_1655,016,256,20,5,mattin,Experiment_EEG_version,20,
Nonliving_Things,../experiment_stimuli/bw_bc_bl/Nonliving_Things/Kitchen_Uten/fondue_9.jpg,Kitchen_Uten,0,fondue,0,71,71,30,268.220709831,V_nV,2,268.254988429,269.553524485,1,2,0.761883760104,270.335965483,3,0,0.210670188302,5,6.5,32,bw,99.7797804216,2019_jul_12_1655,016,256,20,5,mattin,Experiment_EEG_version,20,
Living_Things,../experiment_stimuli/bw_bc_bl/Living_Things/Birds/magpie_0.jpg,Birds,0,magpie,0,72,72,51,272.27954902,nV_V,2,272.299167554,273.572272127,0,1,1.02244623587,274.615309526,2,0,0.411112945061,5,6.0,32,bw,99.7797804216,2019_jul_12_1655,016,256,20,5,mattin,Experiment_EEG_version,20,
Nonliving_Things,../experiment_stimuli/bw_bc_bl/Nonliving_Things/Buildings/house_22.jpg,Buildings,0,house,0,73,73,41,276.759302486,V_nV,2,276.776242108,278.031976379,1,2,0.822017892264,278.874549077,2,0,0.310890070396,5,6.5,32,bw,99.7797804216,2019_jul_12_1655,016,256,20,5,mattin,Experiment_EEG_version,20,
Living_Things,../experiment_stimuli/bw_bc_bl/Living_Things/Animals/hippopotamus_15.jpg,Animals,0,hippopotamus,0,74,74,39,280.918364091,V_nV,1,280.929948902,282.181025862,1,1,0.270818951773,282.472384643,1,1,0.150544334203,5,6.0,32,bw,99.7797804216,2019_jul_12_1655,016,256,20,5,mattin,Experiment_EEG_version,20,
Nonliving_Things,../experiment_stimuli/bw_bc_bl/Nonliving_Things/Kitchen_Uten/saucepan_15.jpg,Kitchen_Uten,0,saucepan,0,75,75,71,284.355857318,nV_V,1,284.374019492,285.648572264,1,1,1.13269343111,286.801819245,3,0,0.230723728426,5,6.5,32,bw,99.7797804216,2019_jul_12_1655,016,256,20,5,mattin,Experiment_EEG_version,20,
Nonliving_Things,../experiment_stimuli/bw_bc_bl/Nonliving_Things/Musical_Inst/violin_8.jpg,Musical_Inst,0,violin,0,76,76,92,288.765445624,V_nV,2,288.783966906,290.028101433,1,2,0.441216200823,290.489906736,1,1,0.0703845373355,5,6.0,32,bw,99.7797804216,2019_jul_12_1655,016,256,20,5,mattin,Experiment_EEG_version,20,
Nonliving_Things,../experiment_stimuli/bw_bc_bl/Nonliving_Things/Vehicles/bus_21.jpg,Vehicles,0,bus,0,77,77,9,292.293134236,nV_V,1,292.311650774,293.585857975,1,1,0.912207889603,294.518617775,3,0,0.280821273336,5,6.0,32,bw,99.7797804216,2019_jul_12_1655,016,256,20,5,mattin,Experiment_EEG_version,20,
Living_Things,../experiment_stimuli/bw_bc_bl/Living_Things/Birds/pelican_10.jpg,Birds,0,pelican,0,78,78,60,296.532360457,nV_V,2,296.547141096,297.79501115,0,1,0.0503423917107,297.865947513,1,1,0.160560989752,5,6.5,32,bw,99.7797804216,2019_jul_12_1655,016,256,20,5,mattin,Experiment_EEG_version,20,
Nonliving_Things,../experiment_stimuli/bw_bc_bl/Nonliving_Things/Kitchen_Uten/small-saucepan_11.jpg,Kitchen_Uten,0,small-saucepan,0,79,79,77,299.7593929,nV_V,1,299.774355101,301.042081886,1,1,0.97233249573,302.034985229,2,0,0.14038198092,5,6.0,32,bw,99.7797804216,2019_jul_12_1655,016,256,20,5,mattin,Experiment_EEG_version,20,
Nonliving_Things,../experiment_stimuli/bw_bc_bl/Nonliving_Things/Furniture/chair_18.jpg,Furniture,0,chair,0,80,80,15,303.908420166,nV_V,1,303.924977034,305.181106387,1,1,0.381078955485,305.582726415,1,1,0.110503843287,5,6.5,32,bw,99.7797804216,2019_jul_12_1655,016,256,20,5,mattin,Experiment_EEG_version,20,
Living_Things,../experiment_stimuli/bw_bc_bl/Living_Things/Animals/rhino_25.jpg,Animals,0,rhino,0,81,81,68,307.426112341,nV_V,2,307.45094339,308.708789131,0,1,0.691742708907,309.421081627,2,0,0.100474725245,5,6.5,32,bw,99.7797804216,2019_jul_12_1655,016,256,20,5,mattin,Experiment_EEG_version,20,
Living_Things,../experiment_stimuli/bw_bc_bl/Living_Things/Animals/cheetah_4.jpg,Animals,0,cheetah,0,82,82,16,311.2544441,V_nV,1,311.274250876,312.517069354,1,1,0.541401188355,313.079025663,2,0,0.0802374614868,5,6.0,32,bw,99.7797804216,2019_jul_12_1655,016,256,20,5,mattin,Experiment_EEG_version,20,
Nonliving_Things,../experiment_stimuli/bw_bc_bl/Nonliving_Things/Furniture/table_25.jpg,Furniture,0,table,0,83,83,81,314.892343532,nV_V,1,314.913484629,316.154991459,0,2,0.481286882889,316.656857497,1,1,0.861935174093,5,6.0,32,bw,99.7797804216,2019_jul_12_1655,016,256,20,5,mattin,Experiment_EEG_version,20,
Nonliving_Things,../experiment_stimuli/bw_bc_bl/Nonliving_Things/Musical_Inst/saxophone_14.jpg,Musical_Inst,0,saxophone,0,84,84,72,319.251834774,nV_V,1,319.272676046,320.514484633,1,1,1.5033415556,322.038378388,2,0,0.330935114762,5,6.0,32,bw,99.7797804216,2019_jul_12_1655,016,256,20,5,mattin,Experiment_EEG_version,20,
Living_Things,../experiment_stimuli/bw_bc_bl/Living_Things/Animals/horse_17.jpg,Animals,0,horse,0,85,85,40,324.102412429,nV_V,2,324.119560606,325.355039234,1,2,0.0503409779631,325.425925141,1,1,0.0301320222206,5,7.5,32,bw,99.7797804216,2019_jul_12_1655,016,256,20,5,mattin,Experiment_EEG_version,20,
Living_Things,../experiment_stimuli/bw_bc_bl/Living_Things/Birds/owl_14.jpg,Birds,0,owl,0,86,86,57,327.189115481,nV_V,2,327.205897109,328.481836298,0,1,0.44118486275,328.943587771,3,0,0.150536747882,5,6.0,32,bw,99.7797804216,2019_jul_12_1655,016,256,20,5,mattin,Experiment_EEG_version,20,
Living_Things,../experiment_stimuli/bw_bc_bl/Living_Things/Marine_creatures/lobster_24.jpg,Marine_creatures,0,lobster,0,87,87,49,330.837085091,nV_V,2,330.854193467,332.099709495,0,1,0.55141909956,332.671687855,2,0,0.140525344061,5,6.0,32,bw,99.7797804216,2019_jul_12_1655,016,256,20,5,mattin,Experiment_EEG_version,20,
Nonliving_Things,../experiment_stimuli/bw_bc_bl/Nonliving_Things/Kitchen_Uten/pot_1.jpg,Kitchen_Uten,0,pot,0,88,88,66,334.545132751,nV_V,1,334.570128633,335.807797045,1,1,0.330934761092,336.159288304,2,0,0.140381867997,5,7.0,32,bw,99.7797804216,2019_jul_12_1655,016,256,20,5,mattin,Experiment_EEG_version,20,
Nonliving_Things,../experiment_stimuli/bw_bc_bl/Nonliving_Things/Furniture/bed_13.jpg,Furniture,0,bed,0,89,89,5,338.032726061,V_nV,2,338.052811916,339.275339943,1,2,0.391074442538,339.686960473,2,0,2.60588659626,5,6.0,32,bw,99.7797804216,2019_jul_12_1655,016,256,20,5,mattin,Experiment_EEG_version,20,
Nonliving_Things,../experiment_stimuli/bw_bc_bl/Nonliving_Things/Furniture/wardrobe_6.jpg,Furniture,0,wardrobe,0,90,90,93,344.025782155,nV_V,1,344.039994702,345.278409497,0,2,0.300880125258,345.599869638,2,0,0.411114712013,5,6.0,32,bw,99.7797804216,2019_jul_12_1655,016,256,20,5,mattin,Experiment_EEG_version,20,
Living_Things,../experiment_stimuli/bw_bc_bl/Living_Things/Insects/ladybird_24.jpg,Insects,0,ladybird,0,91,91,45,347.743886342,V_nV,1,347.7704777,349.006528498,0,2,0.711772260722,349.738883226,2,0,1.52353540598,5,6.5,32,bw,99.7797804216,2019_jul_12_1655,016,256,20,5,mattin,Experiment_EEG_version,20,
Nonliving_Things,../experiment_stimuli/bw_bc_bl/Nonliving_Things/Furniture/Chest-of-drawers_23.jpg,Furniture,0,Chest-of-drawers,0,92,92,0,352.995320071,V_nV,2,353.014113595,354.237927878,0,1,0.631612193305,354.89011058,1,1,0.140511178877,5,7.0,32,bw,99.7797804216,2019_jul_12_1655,016,256,20,5,mattin,Experiment_EEG_version,20,
Nonliving_Things,../experiment_stimuli/bw_bc_bl/Nonliving_Things/Buildings/castle_8.jpg,Buildings,0,castle,0,93,93,12,356.773541921,nV_V,1,356.790293181,358.046209665,0,2,0.29088274017,358.357666669,1,1,0.060342081124,5,7.5,32,bw,99.7797804216,2019_jul_12_1655,016,256,20,5,mattin,Experiment_EEG_version,20,
Living_Things,../experiment_stimuli/bw_bc_bl/Living_Things/Animals/zebra_20.jpg,Animals,0,zebra,0,94,94,95,360.160916661,nV_V,2,360.181126252,361.443616492,1,2,0.571466576075,362.035628675,2,0,0.461227260064,5,7.5,32,bw,99.7797804216,2019_jul_12_1655,016,256,20,5,mattin,Experiment_EEG_version,20,
Nonliving_Things,../experiment_stimuli/bw_bc_bl/Nonliving_Things/Musical_Inst/piano__6.jpg,Musical_Inst,0,piano,0,95,95,62,364.229775994,V_nV,2,364.253837751,365.51247107,1,2,0.561446112115,366.094468894,2,0,0.150537048234,5,6.5,32,bw,99.7797804216,2019_jul_12_1655,016,256,20,5,mattin,Experiment_EEG_version,20,
