category,probe_path,subcategory,fixation_duration,label,trials.thisRepN,trials.thisTrialN,trials.thisN,trials.thisIndex,image_onset_time,response_window,correctAns,probe_onset,discrim_resptime,response.corr,response.keys,response.rt,visible_resptime,visible.keys,visible.corr,visible.rt,probeFrames,jitter2,n_square,experiment_color,frameRate,date,session,image_size,premask_dur,probeFrames,participant,expName,postmask_dur,
Nonliving_Things,../experiment_stimuli/bw_bc_bl/Nonliving_Things/Musical_Inst/violin_26.jpg,Musical_Inst,0,violin,0,0,0,92,3.7159096438,V_nV,2,3.73789225705,4.9985914994,1,2,0.491293369792,5.52071846533,3,0,0.150553802727,5,6.0,32,bw,99.7833341387,2019_may_28_1014,015,256,20,5,leyre,Experiment_EEG_version,20,
Nonliving_Things,../experiment_stimuli/bw_bc_bl/Nonliving_Things/Vehicles/boat_12.jpg,Vehicles,0,boat,0,1,1,7,7.40391848353,nV_V,1,7.40879762406,8.65653807437,1,1,0.541414682288,9.21852008603,2,0,0.110463470686,5,6.0,32,bw,99.7833341387,2019_may_28_1014,015,256,20,5,leyre,Experiment_EEG_version,20,
Living_Things,../experiment_stimuli/bw_bc_bl/Living_Things/Animals/armadillo_4.jpg,Animals,0,armadillo,0,2,2,1,11.0618690134,nV_V,2,11.0673298184,12.3044678492,1,2,0.461222251644,12.786259122,2,0,0.21068707644,5,6.0,32,bw,99.7833341387,2019_may_28_1014,015,256,20,5,leyre,Experiment_EEG_version,20,
Nonliving_Things,../experiment_stimuli/bw_bc_bl/Nonliving_Things/Buildings/factory_14.jpg,Buildings,0,factory,0,3,3,28,14.729843772,nV_V,1,14.7346031845,15.9624229053,0,2,0.0302958441898,16.0132831393,1,1,0.0603616768494,5,6.5,32,bw,99.7833341387,2019_may_28_1014,015,256,20,5,leyre,Experiment_EEG_version,20,
Nonliving_Things,../experiment_stimuli/bw_bc_bl/Nonliving_Things/Vehicles/motorbike_4.jpg,Vehicles,0,motorbike,0,4,4,54,17.8065282658,nV_V,1,17.8113854702,19.0591554802,1,1,0.391079072142,19.4707784122,2,0,0.140374997165,5,6.0,32,bw,99.7833341387,2019_may_28_1014,015,256,20,5,leyre,Experiment_EEG_version,20,
Nonliving_Things,../experiment_stimuli/bw_bc_bl/Nonliving_Things/Musical_Inst/guitar_23.jpg,Musical_Inst,0,guitar,0,5,5,36,21.344216672,V_nV,2,21.3491491536,22.5868761197,1,2,0.110464406665,22.7178383044,1,1,0.0302797467448,5,6.5,32,bw,99.7833341387,2019_may_28_1014,015,256,20,5,leyre,Experiment_EEG_version,20,
Living_Things,../experiment_stimuli/bw_bc_bl/Living_Things/Animals/cat_3.jpg,Animals,0,cat,0,6,6,13,24.4810360752,V_nV,1,24.4860176989,25.7336631618,0,2,0.87212508521,26.6263492382,2,0,0.180631867843,5,6.5,32,bw,99.7833341387,2019_may_28_1014,015,256,20,5,leyre,Experiment_EEG_version,20,
Nonliving_Things,../experiment_stimuli/bw_bc_bl/Nonliving_Things/Kitchen_Uten/saucepan_2.jpg,Kitchen_Uten,0,saucepan,0,7,7,71,28.5398715741,V_nV,2,28.5452654441,29.7824657671,1,2,0.521420412231,30.3244289488,3,0,0.17059452273,5,6.0,32,bw,99.7833341387,2019_may_28_1014,015,256,20,5,leyre,Experiment_EEG_version,20,
Living_Things,../experiment_stimuli/bw_bc_bl/Living_Things/Animals/hippopotamus_8.jpg,Animals,0,hippopotamus,0,8,8,39,32.2278910307,V_nV,1,32.2327420735,33.460459416,0,2,0.0703889655415,33.5514182749,1,1,0.100446422584,5,6.0,32,bw,99.7833341387,2019_may_28_1014,015,256,20,5,leyre,Experiment_EEG_version,20,
Living_Things,../experiment_stimuli/bw_bc_bl/Living_Things/Birds/duck_4.jpg,Birds,0,duck,0,9,9,26,35.3847367822,nV_V,2,35.3895709005,36.6273411291,1,2,0.150565599091,36.7984637497,1,1,0.1204969096,5,6.0,32,bw,99.7833341387,2019_may_28_1014,015,256,20,5,leyre,Experiment_EEG_version,20,
Living_Things,../experiment_stimuli/bw_bc_bl/Living_Things/Animals/cheetah_5.jpg,Animals,0,cheetah,0,10,10,16,38.6518439357,nV_V,2,38.6568084245,39.9144922851,1,2,0.761884148698,40.6969411094,3,0,0.14052974293,5,7.0,32,bw,99.7833341387,2019_may_28_1014,015,256,20,5,leyre,Experiment_EEG_version,20,
Living_Things,../experiment_stimuli/bw_bc_bl/Living_Things/Animals/turtle_17.jpg,Animals,0,turtle,0,11,11,90,42.5703761699,nV_V,2,42.5751924389,43.8129611334,0,1,0.541418798966,44.374936841,2,0,0.140534359729,5,6.5,32,bw,99.7833341387,2019_may_28_1014,015,256,20,5,leyre,Experiment_EEG_version,20,
Nonliving_Things,../experiment_stimuli/bw_bc_bl/Nonliving_Things/Tools/hammer_10.jpg,Tools,0,hammer,0,12,12,37,46.248350838,nV_V,1,46.253263406,47.4809330502,0,2,0.0804004650563,47.581887672,1,1,0.160583997378,5,7.0,32,bw,99.7833341387,2019_may_28_1014,015,256,20,5,leyre,Experiment_EEG_version,20,
Living_Things,../experiment_stimuli/bw_bc_bl/Living_Things/Insects/ladybird_22.jpg,Insects,0,ladybird,0,13,13,45,49.4753726707,nV_V,2,49.4808427352,50.7380193921,1,2,0.681720041204,51.4402831018,2,0,0.230722966371,5,6.5,32,bw,99.7833341387,2019_may_28_1014,015,256,20,5,leyre,Experiment_EEG_version,20,
Nonliving_Things,../experiment_stimuli/bw_bc_bl/Nonliving_Things/Vehicles/car_5.jpg,Vehicles,0,car,0,14,14,11,53.4039101263,nV_V,1,53.4094781177,54.6565884117,1,1,0.761878186371,55.438965267,3,0,0.200658407994,5,6.0,32,bw,99.7833341387,2019_may_28_1014,015,256,20,5,leyre,Experiment_EEG_version,20,
Living_Things,../experiment_stimuli/bw_bc_bl/Living_Things/Birds/hen_17.jpg,Birds,0,hen,0,15,15,38,57.3725501089,nV_V,2,57.3780945402,58.6051171485,0,1,0.280842034612,58.9065853457,2,0,0.230727068149,5,6.0,32,bw,99.7833341387,2019_may_28_1014,015,256,20,5,leyre,Experiment_EEG_version,20,
Nonliving_Things,../experiment_stimuli/bw_bc_bl/Nonliving_Things/Vehicles/plane_13.jpg,Vehicles,0,plane,0,16,16,64,60.8701387551,nV_V,1,60.8749496704,62.1027274895,1,1,0.30089374329,62.4241800476,1,1,0.240749465767,5,6.0,32,bw,99.7833341387,2019_may_28_1014,015,256,20,5,leyre,Experiment_EEG_version,20,
Nonliving_Things,../experiment_stimuli/bw_bc_bl/Nonliving_Things/Vehicles/bus_26.jpg,Vehicles,0,bus,0,17,17,9,64.39780541,V_nV,2,64.4033652174,65.6604611278,1,2,0.551426948747,66.2324280902,3,0,0.0501703380141,5,7.0,32,bw,99.7833341387,2019_may_28_1014,015,256,20,5,leyre,Experiment_EEG_version,20,
Nonliving_Things,../experiment_stimuli/bw_bc_bl/Nonliving_Things/Kitchen_Uten/coking-pot_5.jpg,Kitchen_Uten,0,coking-pot,0,18,18,18,68.0156764837,V_nV,2,68.020454885,69.2482542901,1,2,0.56144903833,69.8302619061,3,0,0.120497101452,5,6.0,32,bw,99.7833341387,2019_may_28_1014,015,256,20,5,leyre,Experiment_EEG_version,20,
Living_Things,../experiment_stimuli/bw_bc_bl/Living_Things/Animals/tiger_12.jpg,Animals,0,tiger,0,19,19,84,71.6836502575,nV_V,2,71.6899693545,72.9162343154,1,2,0.130351144588,73.0671488459,1,1,0.160585719161,5,6.0,32,bw,99.7833341387,2019_may_28_1014,015,256,20,5,leyre,Experiment_EEG_version,20,
Living_Things,../experiment_stimuli/bw_bc_bl/Living_Things/Marine_creatures/dolphin_5.jpg,Marine_creatures,0,dolphin,0,20,20,23,74.9607727828,nV_V,2,74.9657041365,76.2234212072,1,2,0.0704016045202,76.3143889233,1,1,0.100439546397,5,6.0,32,bw,99.7833341387,2019_may_28_1014,015,256,20,5,leyre,Experiment_EEG_version,20,
Nonliving_Things,../experiment_stimuli/bw_bc_bl/Nonliving_Things/Kitchen_Uten/pot_18.jpg,Kitchen_Uten,0,pot,0,21,21,66,78.1477057461,nV_V,1,78.1533184175,79.4404155859,1,1,1.64426389546,81.1052142663,3,0,0.14052240504,5,6.5,32,bw,99.7833341387,2019_may_28_1014,015,256,20,5,leyre,Experiment_EEG_version,20,
Living_Things,../experiment_stimuli/bw_bc_bl/Living_Things/Marine_creatures/pomfret_18.jpg,Marine_creatures,0,pomfret,0,22,22,65,82.9782075626,nV_V,2,82.9831750512,84.2408591334,1,2,0.611574064475,84.8729864941,3,0,0.200661727693,5,6.0,32,bw,99.7833341387,2019_may_28_1014,015,256,20,5,leyre,Experiment_EEG_version,20,
Living_Things,../experiment_stimuli/bw_bc_bl/Living_Things/Marine_creatures/sperm-whale_8.jpg,Marine_creatures,0,sperm-whale,0,23,23,80,86.8065280695,nV_V,2,86.8122899679,88.0391104096,1,2,0.381050140597,88.4407262141,1,1,0.130504973,5,7.5,32,bw,99.7833341387,2019_may_28_1014,015,256,20,5,leyre,Experiment_EEG_version,20,
Nonliving_Things,../experiment_stimuli/bw_bc_bl/Nonliving_Things/Musical_Inst/drum_24.jpg,Musical_Inst,0,drum,0,24,24,25,90.3041463844,nV_V,1,90.3090656069,91.5567547649,0,2,0.230729826959,91.8080630002,1,1,0.110458079726,5,6.5,32,bw,99.7833341387,2019_may_28_1014,015,256,20,5,leyre,Experiment_EEG_version,20,
Nonliving_Things,../experiment_stimuli/bw_bc_bl/Nonliving_Things/Furniture/filling-cabinet_25.jpg,Furniture,0,filling-cabinet,0,25,25,29,93.6514090896,V_nV,2,93.6577756067,94.9240727879,1,2,0.621425284538,95.5660610332,3,0,0.180614973186,5,7.0,32,bw,99.7833341387,2019_may_28_1014,015,256,20,5,leyre,Experiment_EEG_version,20,
Living_Things,../experiment_stimuli/bw_bc_bl/Living_Things/Marine_creatures/lobster_25.jpg,Marine_creatures,0,lobster,0,26,26,49,97.4797328336,nV_V,2,97.4847548702,98.7223444961,0,1,0.711778832832,99.4646841504,2,0,0.0904239721131,5,6.5,32,bw,99.7833341387,2019_may_28_1014,015,256,20,5,leyre,Experiment_EEG_version,20,
Living_Things,../experiment_stimuli/bw_bc_bl/Living_Things/Animals/giraffe_9.jpg,Animals,0,giraffe,0,27,27,32,101.288012955,V_nV,1,101.293047127,102.520590118,1,1,0.270836891839,102.812009531,2,0,0.0603715227917,5,8.0,32,bw,99.7833341387,2019_may_28_1014,015,256,20,5,leyre,Experiment_EEG_version,20,
Living_Things,../experiment_stimuli/bw_bc_bl/Living_Things/Animals/elephant_5.jpg,Animals,0,elephant,0,28,28,27,104.60522497,V_nV,1,104.610092787,105.837801276,0,2,0.110466173384,105.968825012,1,1,0.060348759871,5,6.0,32,bw,99.7833341387,2019_may_28_1014,015,256,20,5,leyre,Experiment_EEG_version,20,
Nonliving_Things,../experiment_stimuli/bw_bc_bl/Nonliving_Things/Furniture/armchair_11.jpg,Furniture,0,armchair,0,29,29,2,107.762079698,nV_V,1,107.768460953,109.01471309,1,1,0.651649129577,109.686926764,1,1,0.561442496721,5,6.5,32,bw,99.7833341387,2019_may_28_1014,015,256,20,5,leyre,Experiment_EEG_version,20,
Nonliving_Things,../experiment_stimuli/bw_bc_bl/Nonliving_Things/Furniture/bedside-table_9.jpg,Furniture,0,bedside-table,0,30,30,6,111.981255563,V_nV,2,111.986184977,113.263945964,1,2,0.671684820438,113.956187106,3,0,0.120484308572,5,7.0,32,bw,99.7833341387,2019_may_28_1014,015,256,20,5,leyre,Experiment_EEG_version,20,
Living_Things,../experiment_stimuli/bw_bc_bl/Living_Things/Animals/rhino_6.jpg,Animals,0,rhino,0,31,31,68,115.809575394,nV_V,2,115.815351754,117.062210661,1,2,0.822017452912,117.904782549,3,0,0.100479587214,5,6.5,32,bw,99.7833341387,2019_may_28_1014,015,256,20,5,leyre,Experiment_EEG_version,20,
Living_Things,../experiment_stimuli/bw_bc_bl/Living_Things/Insects/dragonfly_22.jpg,Insects,0,dragonfly,0,32,32,24,119.738124777,nV_V,2,119.742949449,120.970698824,1,2,0.100451614242,121.091694908,1,1,0.150568941375,5,6.0,32,bw,99.7833341387,2019_may_28_1014,015,256,20,5,leyre,Experiment_EEG_version,20,
Nonliving_Things,../experiment_stimuli/bw_bc_bl/Nonliving_Things/Buildings/house_8.jpg,Buildings,0,house,0,33,33,41,122.975155727,nV_V,1,122.979899388,124.217762265,0,2,0.230725575471,124.469061587,1,1,0.0102581463289,5,6.0,32,bw,99.7833341387,2019_may_28_1014,015,256,20,5,leyre,Experiment_EEG_version,20,
Living_Things,../experiment_stimuli/bw_bc_bl/Living_Things/Birds/hummingbird_4.jpg,Birds,0,hummingbird,0,34,34,42,126.212194157,V_nV,1,126.217246505,127.464816503,1,1,0.822014276637,128.30739412,2,0,0.120478323428,5,6.0,32,bw,99.7833341387,2019_may_28_1014,015,256,20,5,leyre,Experiment_EEG_version,20,
Living_Things,../experiment_stimuli/bw_bc_bl/Living_Things/Birds/pelican_5.jpg,Birds,0,pelican,0,35,35,60,130.160784652,nV_V,2,130.166626418,131.403381255,0,1,0.541403385578,131.965332474,2,0,0.150544167263,5,7.5,32,bw,99.7833341387,2019_may_28_1014,015,256,20,5,leyre,Experiment_EEG_version,20,
Living_Things,../experiment_stimuli/bw_bc_bl/Living_Things/Marine_creatures/shark_15.jpg,Marine_creatures,0,shark,0,36,36,75,133.848803225,nV_V,2,133.853759282,135.081376535,1,2,0.581498363754,135.683422033,3,0,0.120477695717,5,6.0,32,bw,99.7833341387,2019_may_28_1014,015,256,20,5,leyre,Experiment_EEG_version,20,
Nonliving_Things,../experiment_stimuli/bw_bc_bl/Nonliving_Things/Musical_Inst/saxophone_13.jpg,Musical_Inst,0,saxophone,0,37,37,72,137.536816328,V_nV,2,137.541699412,138.769395691,1,2,0.000254052458331,138.790193998,1,1,0.0904273851775,5,6.5,32,bw,99.7833341387,2019_may_28_1014,015,256,20,5,leyre,Experiment_EEG_version,20,
Nonliving_Things,../experiment_stimuli/bw_bc_bl/Nonliving_Things/Furniture/sofa_2.jpg,Furniture,0,sofa,0,38,38,78,140.613527851,V_nV,2,140.618346192,141.856104672,1,2,0.431164659793,142.30781338,1,1,0.0102347144857,5,7.0,32,bw,99.7833341387,2019_may_28_1014,015,256,20,5,leyre,Experiment_EEG_version,20,
Living_Things,../experiment_stimuli/bw_bc_bl/Living_Things/Animals/lioness_26.jpg,Animals,0,lioness,0,39,39,48,144.051001125,nV_V,2,144.057944025,145.313637354,1,2,0.791951270774,146.126119076,2,0,0.210682557896,5,6.0,32,bw,99.7833341387,2019_may_28_1014,015,256,20,5,leyre,Experiment_EEG_version,20,
Nonliving_Things,../experiment_stimuli/bw_bc_bl/Nonliving_Things/Musical_Inst/piano__3.jpg,Musical_Inst,0,piano,0,40,40,62,148.069715966,V_nV,2,148.07562105,149.322341023,1,2,0.651656122413,149.994531332,2,0,0.230741097359,5,6.0,32,bw,99.7833341387,2019_may_28_1014,015,256,20,5,leyre,Experiment_EEG_version,20,
Nonliving_Things,../experiment_stimuli/bw_bc_bl/Nonliving_Things/Furniture/Chest-of-drawers_14.jpg,Furniture,0,Chest-of-drawers,0,41,41,0,151.958171544,V_nV,2,151.962913044,153.200770406,1,2,0.18061748473,153.40194383,1,1,0.150551738683,5,6.0,32,bw,99.7833341387,2019_may_28_1014,015,256,20,5,leyre,Experiment_EEG_version,20,
Living_Things,../experiment_stimuli/bw_bc_bl/Living_Things/Animals/lynx_16.jpg,Animals,0,lynx,0,42,42,50,155.285404905,V_nV,1,155.290311838,156.548056438,1,1,0.571480266517,157.140084997,3,0,0.100448050071,5,6.0,32,bw,99.7833341387,2019_may_28_1014,015,256,20,5,leyre,Experiment_EEG_version,20,
Nonliving_Things,../experiment_stimuli/bw_bc_bl/Nonliving_Things/Vehicles/tractor_21.jpg,Vehicles,0,tractor,0,43,43,86,158.973426113,V_nV,2,158.978321302,160.216016926,0,1,0.170604000334,160.407204887,2,0,0.100453535095,5,6.5,32,bw,99.7833341387,2019_may_28_1014,015,256,20,5,leyre,Experiment_EEG_version,20,
Living_Things,../experiment_stimuli/bw_bc_bl/Living_Things/Birds/goldfinch_24.jpg,Birds,0,goldfinch,0,44,44,33,162.240517677,nV_V,2,162.245373373,163.473123313,1,2,0.270829572342,163.76448143,1,1,0.0703891948797,5,6.0,32,bw,99.7833341387,2019_may_28_1014,015,256,20,5,leyre,Experiment_EEG_version,20,
Living_Things,../experiment_stimuli/bw_bc_bl/Living_Things/Animals/cow_4.jpg,Animals,0,cow,0,45,45,20,165.567757743,V_nV,1,165.572649132,166.810368722,1,1,0.0403387907427,166.871263756,1,1,0.812011024915,5,6.5,32,bw,99.7833341387,2019_may_28_1014,015,256,20,5,leyre,Experiment_EEG_version,20,
Living_Things,../experiment_stimuli/bw_bc_bl/Living_Things/Birds/barn-owl_15.jpg,Birds,0,barn-owl,0,46,46,4,169.416117129,V_nV,1,169.422084396,170.668746358,1,1,0.541404512944,171.230689262,1,1,0.230720221996,5,7.5,32,bw,99.7833341387,2019_may_28_1014,015,256,20,5,leyre,Experiment_EEG_version,20,
Living_Things,../experiment_stimuli/bw_bc_bl/Living_Things/Birds/sparrow_22.jpg,Birds,0,sparrow,0,47,47,79,173.19433226,V_nV,1,173.200640101,174.477028487,1,1,0.541652359534,175.03923038,3,0,0.110454076203,5,6.5,32,bw,99.7833341387,2019_may_28_1014,015,256,20,5,leyre,Experiment_EEG_version,20,
Living_Things,../experiment_stimuli/bw_bc_bl/Living_Things/Birds/magpie_2.jpg,Birds,0,magpie,0,48,48,51,176.882354021,V_nV,1,176.887267946,178.134984235,1,1,0.842088500503,178.997629588,1,1,0.150549355196,5,6.0,32,bw,99.7833341387,2019_may_28_1014,015,256,20,5,leyre,Experiment_EEG_version,20,
Living_Things,../experiment_stimuli/bw_bc_bl/Living_Things/Birds/kiwi_0.jpg,Birds,0,kiwi,0,49,49,44,180.881042328,V_nV,1,180.885962735,182.153715125,1,1,1.57365482789,183.747923932,3,0,0.290884935763,5,6.0,32,bw,99.7833341387,2019_may_28_1014,015,256,20,5,leyre,Experiment_EEG_version,20,
Nonliving_Things,../experiment_stimuli/bw_bc_bl/Nonliving_Things/Furniture/bookcase_17.jpg,Furniture,0,bookcase,0,50,50,8,185.771679088,nV_V,1,185.778908131,187.024303532,1,1,0.671703560743,187.716581362,3,0,0.290852609091,5,6.0,32,bw,99.7833341387,2019_may_28_1014,015,256,20,5,leyre,Experiment_EEG_version,20,
Nonliving_Things,../experiment_stimuli/bw_bc_bl/Nonliving_Things/Buildings/palace_19.jpg,Buildings,0,palace,0,51,51,58,189.740303571,nV_V,1,189.745189151,190.972893839,0,2,0.110484808683,191.103939598,1,1,0.150554971769,5,6.5,32,bw,99.7833341387,2019_may_28_1014,015,256,20,5,leyre,Experiment_EEG_version,20,
Nonliving_Things,../experiment_stimuli/bw_bc_bl/Nonliving_Things/Buildings/cathedral_20.jpg,Buildings,0,cathedral,0,52,52,14,192.987360263,V_nV,2,192.992135732,194.250012568,1,2,0.581492747413,194.852047235,2,0,0.230716759805,5,6.0,32,bw,99.7833341387,2019_may_28_1014,015,256,20,5,leyre,Experiment_EEG_version,20,
Nonliving_Things,../experiment_stimuli/bw_bc_bl/Nonliving_Things/Kitchen_Uten/fondue_13.jpg,Kitchen_Uten,0,fondue,0,53,53,30,196.815683293,V_nV,2,196.821705759,198.078336067,1,2,0.541404888965,198.640319086,3,0,0.120484221727,5,6.0,32,bw,99.7833341387,2019_may_28_1014,015,256,20,5,leyre,Experiment_EEG_version,20,
Nonliving_Things,../experiment_stimuli/bw_bc_bl/Nonliving_Things/Buildings/church_9.jpg,Buildings,0,church,0,54,54,17,200.493681784,V_nV,2,200.498587762,201.736286744,1,2,0.220717004267,201.977573149,1,1,0.0302815889008,5,7.5,32,bw,99.7833341387,2019_may_28_1014,015,256,20,5,leyre,Experiment_EEG_version,20,
Living_Things,../experiment_stimuli/bw_bc_bl/Living_Things/Marine_creatures/killer-whale_1.jpg,Marine_creatures,0,killer-whale,0,55,55,43,203.740742857,nV_V,2,203.74553328,204.993368229,1,2,0.310914881993,205.324848644,1,1,0.100499996683,5,6.0,32,bw,99.7833341387,2019_may_28_1014,015,256,20,5,leyre,Experiment_EEG_version,20,
Living_Things,../experiment_stimuli/bw_bc_bl/Living_Things/Insects/scorpion_3.jpg,Insects,0,scorpion,0,56,56,73,207.15818338,V_nV,1,207.163186808,208.450891468,0,2,0.461251777597,208.932713345,1,1,0.451204823796,5,6.0,32,bw,99.7833341387,2019_may_28_1014,015,256,20,5,leyre,Experiment_EEG_version,20,
Living_Things,../experiment_stimuli/bw_bc_bl/Living_Things/Birds/goose_18.jpg,Birds,0,goose,0,57,57,34,211.116787439,V_nV,1,211.121652842,212.41952021,1,1,0.601537956623,213.04159453,3,0,0.0603474213276,5,6.0,32,bw,99.7833341387,2019_may_28_1014,015,256,20,5,leyre,Experiment_EEG_version,20,
Nonliving_Things,../experiment_stimuli/bw_bc_bl/Nonliving_Things/Furniture/couch_4.jpg,Furniture,0,couch,0,58,58,19,214.834862829,V_nV,2,214.839768999,216.117551068,1,2,0.431166309863,216.569278497,3,0,0.0803887771908,5,6.0,32,bw,99.7833341387,2019_may_28_1014,015,256,20,5,leyre,Experiment_EEG_version,20,
Nonliving_Things,../experiment_stimuli/bw_bc_bl/Nonliving_Things/Furniture/rocking-chair_24.jpg,Furniture,0,rocking-chair,0,59,59,69,218.382574611,V_nV,2,218.387605219,219.635201683,1,2,0.591534516774,220.247305815,3,0,0.0703747514635,5,6.0,32,bw,99.7833341387,2019_may_28_1014,015,256,20,5,leyre,Experiment_EEG_version,20,
Nonliving_Things,../experiment_stimuli/bw_bc_bl/Nonliving_Things/Musical_Inst/trumpet_1.jpg,Musical_Inst,0,trumpet,0,60,60,88,222.050575654,nV_V,1,222.055518425,223.293165231,0,2,0.200663381722,223.514382728,1,1,0.120485545136,5,6.0,32,bw,99.7833341387,2019_may_28_1014,015,256,20,5,leyre,Experiment_EEG_version,20,
Living_Things,../experiment_stimuli/bw_bc_bl/Living_Things/Birds/toucan_4.jpg,Birds,0,toucan,0,61,61,85,225.367755971,V_nV,1,225.372829499,226.610364021,1,1,0.0804004459642,226.711301985,1,1,0.862094803946,5,6.0,32,bw,99.7833341387,2019_may_28_1014,015,256,20,5,leyre,Experiment_EEG_version,20,
Living_Things,../experiment_stimuli/bw_bc_bl/Living_Things/Insects/butterfly_4.jpg,Insects,0,butterfly,0,62,62,10,229.306322313,nV_V,2,229.311341951,230.568972613,1,2,0.571469725342,231.160999916,3,0,0.100278499769,5,6.0,32,bw,99.7833341387,2019_may_28_1014,015,256,20,5,leyre,Experiment_EEG_version,20,
Living_Things,../experiment_stimuli/bw_bc_bl/Living_Things/Birds/ostrich_17.jpg,Birds,0,ostrich,0,63,63,56,232.99434254,nV_V,2,232.999435775,234.246973641,1,2,0.270818433724,234.538333345,1,1,0.0804104949348,5,6.0,32,bw,99.7833341387,2019_may_28_1014,015,256,20,5,leyre,Experiment_EEG_version,20,
Living_Things,../experiment_stimuli/bw_bc_bl/Living_Things/Birds/partridge_9.jpg,Birds,0,partridge,0,64,64,59,236.351640007,V_nV,1,236.35802834,237.614287416,1,1,0.591511848383,238.226342598,3,0,0.120478346245,5,6.0,32,bw,99.7833341387,2019_may_28_1014,015,256,20,5,leyre,Experiment_EEG_version,20,
Living_Things,../experiment_stimuli/bw_bc_bl/Living_Things/Birds/seagull_9.jpg,Birds,0,seagull,0,65,65,74,240.079757716,V_nV,1,240.084766719,241.322348161,1,1,0.451198929222,241.804112904,3,0,0.120493195718,5,7.0,32,bw,99.7833341387,2019_may_28_1014,015,256,20,5,leyre,Experiment_EEG_version,20,
Living_Things,../experiment_stimuli/bw_bc_bl/Living_Things/Marine_creatures/whale_15.jpg,Marine_creatures,0,whale,0,66,66,94,243.657523744,V_nV,1,243.662482842,244.890112825,1,1,0.381070027361,245.2917402,1,1,0.701760197757,5,7.5,32,bw,99.7833341387,2019_may_28_1014,015,256,20,5,leyre,Experiment_EEG_version,20,
Living_Things,../experiment_stimuli/bw_bc_bl/Living_Things/Marine_creatures/crab_3.jpg,Marine_creatures,0,crab,0,67,67,21,247.726368487,V_nV,1,247.731544691,248.989026908,1,1,0.441192437429,249.450754596,3,0,0.0904579225462,5,6.0,32,bw,99.7833341387,2019_may_28_1014,015,256,20,5,leyre,Experiment_EEG_version,20,
Nonliving_Things,../experiment_stimuli/bw_bc_bl/Nonliving_Things/Buildings/granary_11.jpg,Buildings,0,granary,0,68,68,35,251.274077802,V_nV,2,251.279178763,252.526712416,1,2,0.791968379635,253.339233448,3,0,0.24148091767,5,6.5,32,bw,99.7833341387,2019_may_28_1014,015,256,20,5,leyre,Experiment_EEG_version,20,
Living_Things,../experiment_stimuli/bw_bc_bl/Living_Things/Birds/rooster_4.jpg,Birds,0,rooster,0,69,69,70,255.312866953,nV_V,2,255.319325924,256.545467425,1,2,0.120489330729,256.686482574,1,1,0.090264282655,5,6.0,32,bw,99.7833341387,2019_may_28_1014,015,256,20,5,leyre,Experiment_EEG_version,20,
Nonliving_Things,../experiment_stimuli/bw_bc_bl/Nonliving_Things/Furniture/wardrobe_1.jpg,Furniture,0,wardrobe,0,70,70,93,258.509813691,V_nV,2,258.514888742,259.772461066,1,2,0.451208816376,260.244220461,3,0,0.290886228438,5,6.5,32,bw,99.7833341387,2019_may_28_1014,015,256,20,5,leyre,Experiment_EEG_version,20,
Nonliving_Things,../experiment_stimuli/bw_bc_bl/Nonliving_Things/Furniture/lectern_6.jpg,Furniture,0,lectern,0,71,71,47,262.2679843,V_nV,2,262.272984379,263.50057808,1,2,0.531425434398,264.05255057,2,0,0.200666456949,5,6.5,32,bw,99.7833341387,2019_may_28_1014,015,256,20,5,leyre,Experiment_EEG_version,20,
Living_Things,../experiment_stimuli/bw_bc_bl/Living_Things/Marine_creatures/narwhal_16.jpg,Marine_creatures,0,narwhal,0,72,72,55,265.986066552,nV_V,2,265.992563064,267.228672846,1,2,0.731815564446,267.981048387,2,0,0.200656667817,5,6.0,32,bw,99.7833341387,2019_may_28_1014,015,256,20,5,leyre,Experiment_EEG_version,20,
Nonliving_Things,../experiment_stimuli/bw_bc_bl/Nonliving_Things/Vehicles/train_15.jpg,Vehicles,0,train,0,73,73,87,269.9146045,V_nV,2,269.919841763,271.147191061,1,2,0.250776964705,271.418535285,2,0,0.180622322951,5,6.0,32,bw,99.7833341387,2019_may_28_1014,015,256,20,5,leyre,Experiment_EEG_version,20,
Nonliving_Things,../experiment_stimuli/bw_bc_bl/Nonliving_Things/Furniture/table_6.jpg,Furniture,0,table,0,74,74,81,273.332040433,nV_V,1,273.338633484,274.574641949,0,2,0.521368822316,275.116569289,2,0,0.220699248835,5,6.5,32,bw,99.7833341387,2019_may_28_1014,015,256,20,5,leyre,Experiment_EEG_version,20,
Nonliving_Things,../experiment_stimuli/bw_bc_bl/Nonliving_Things/Buildings/mill_23.jpg,Buildings,0,mill,0,75,75,53,277.070169115,V_nV,2,277.075520535,278.302744467,1,2,1.03247631504,279.355797397,3,0,0.130502849119,5,6.0,32,bw,99.7833341387,2019_may_28_1014,015,256,20,5,leyre,Experiment_EEG_version,20,
Nonliving_Things,../experiment_stimuli/bw_bc_bl/Nonliving_Things/Vehicles/ship_21.jpg,Vehicles,0,ship,0,76,76,76,281.219209631,nV_V,1,281.224416894,282.451766215,0,2,0.220727267209,282.693079147,1,1,0.110485477839,5,6.0,32,bw,99.7833341387,2019_may_28_1014,015,256,20,5,leyre,Experiment_EEG_version,20,
Nonliving_Things,../experiment_stimuli/bw_bc_bl/Nonliving_Things/Kitchen_Uten/frying-pan_5.jpg,Kitchen_Uten,0,frying-pan,0,77,77,31,284.53640586,V_nV,2,284.5418247,285.779002072,1,2,0.88215037738,286.681717986,2,0,0.280832173536,5,6.5,32,bw,99.7833341387,2019_may_28_1014,015,256,20,5,leyre,Experiment_EEG_version,20,
Living_Things,../experiment_stimuli/bw_bc_bl/Living_Things/Birds/penguin_24.jpg,Birds,0,penguin,0,78,78,61,288.695439395,V_nV,1,288.70072727,289.938042238,0,2,0.0804060327355,290.03900757,1,1,0.0407653821167,5,6.0,32,bw,99.7833341387,2019_may_28_1014,015,256,20,5,leyre,Experiment_EEG_version,20,
Nonliving_Things,../experiment_stimuli/bw_bc_bl/Nonliving_Things/Kitchen_Uten/cup_0.jpg,Kitchen_Uten,0,cup,0,79,79,22,291.812220216,V_nV,2,291.818850564,293.064849555,1,2,0.42113644979,293.50653806,2,0,0.200650092447,5,6.5,32,bw,99.7833341387,2019_may_28_1014,015,256,20,5,leyre,Experiment_EEG_version,20,
Living_Things,../experiment_stimuli/bw_bc_bl/Living_Things/Birds/owl_10.jpg,Birds,0,owl,0,80,80,57,295.440112473,nV_V,2,295.445314432,296.692731748,0,1,0.671688218601,297.384981105,1,1,0.200657201465,5,6.0,32,bw,99.7833341387,2019_may_28_1014,015,256,20,5,leyre,Experiment_EEG_version,20,
Living_Things,../experiment_stimuli/bw_bc_bl/Living_Things/Marine_creatures/manatee_7.jpg,Marine_creatures,0,manatee,0,81,81,52,299.318538872,nV_V,2,299.325227261,300.59120589,1,2,0.501155161066,301.122968398,2,0,0.19063664577,5,7.0,32,bw,99.7833341387,2019_may_28_1014,015,256,20,5,leyre,Experiment_EEG_version,20,
Living_Things,../experiment_stimuli/bw_bc_bl/Living_Things/Animals/tapir_10.jpg,Animals,0,tapir,0,82,82,82,303.046656585,nV_V,2,303.051977839,304.309289356,1,2,0.551427350845,304.881274419,3,0,0.190475610318,5,6.0,32,bw,99.7833341387,2019_may_28_1014,015,256,20,5,leyre,Experiment_EEG_version,20,
Nonliving_Things,../experiment_stimuli/bw_bc_bl/Nonliving_Things/Furniture/lamp_3.jpg,Furniture,0,lamp,0,83,83,46,306.804809496,nV_V,1,306.81016758,308.05745221,1,1,0.481297998223,308.559295824,3,0,0.120491187787,5,7.0,32,bw,99.7833341387,2019_may_28_1014,015,256,20,5,leyre,Experiment_EEG_version,20,
Living_Things,../experiment_stimuli/bw_bc_bl/Living_Things/Birds/raven_15.jpg,Birds,0,raven,0,84,84,67,310.412650675,nV_V,2,310.418041714,311.645236147,1,2,0.260794437956,311.926591241,1,1,0.0603766315617,5,7.5,32,bw,99.7833341387,2019_may_28_1014,015,256,20,5,leyre,Experiment_EEG_version,20,
Nonliving_Things,../experiment_stimuli/bw_bc_bl/Nonliving_Things/Buildings/castle_21.jpg,Buildings,0,castle,0,85,85,12,313.729864285,nV_V,1,313.735130874,314.982493927,1,1,0.581497559324,315.584539963,2,0,0.150550121907,5,6.5,32,bw,99.7833341387,2019_may_28_1014,015,256,20,5,leyre,Experiment_EEG_version,20,
Nonliving_Things,../experiment_stimuli/bw_bc_bl/Nonliving_Things/Kitchen_Uten/small-saucepan_15.jpg,Kitchen_Uten,0,small-saucepan,0,86,86,77,317.46802082,V_nV,2,317.473461287,318.720622636,1,2,0.691729289014,319.432912183,3,0,0.130508299917,5,6.0,32,bw,99.7833341387,2019_may_28_1014,015,256,20,5,leyre,Experiment_EEG_version,20,
Nonliving_Things,../experiment_stimuli/bw_bc_bl/Nonliving_Things/Vehicles/van_26.jpg,Vehicles,0,van,0,87,87,91,321.296333989,nV_V,1,321.301739061,322.528901228,0,2,0.0503390871454,322.5997924,1,1,0.230725808302,5,6.0,32,bw,99.7833341387,2019_may_28_1014,015,256,20,5,leyre,Experiment_EEG_version,20,
Nonliving_Things,../experiment_stimuli/bw_bc_bl/Nonliving_Things/Furniture/bed_19.jpg,Furniture,0,bed,0,88,88,5,324.563423417,nV_V,1,324.568842373,325.816044978,0,2,0.170616105432,326.007216041,1,1,0.0603547673672,5,6.0,32,bw,99.7833341387,2019_may_28_1014,015,256,20,5,leyre,Experiment_EEG_version,20,
Living_Things,../experiment_stimuli/bw_bc_bl/Living_Things/Animals/zebra_22.jpg,Animals,0,zebra,0,89,89,95,327.800453287,nV_V,2,327.806358721,329.063120384,1,2,0.521361672319,329.605019623,2,0,0.371027735062,5,6.0,32,bw,99.7833341387,2019_may_28_1014,015,256,20,5,leyre,Experiment_EEG_version,20,
Living_Things,../experiment_stimuli/bw_bc_bl/Living_Things/Birds/pigeon_7.jpg,Birds,0,pigeon,0,90,90,63,331.708951417,nV_V,2,331.714497691,332.971599447,1,2,0.44118718151,333.433360409,1,1,0.100478090812,5,8.0,32,bw,99.7833341387,2019_may_28_1014,015,256,20,5,leyre,Experiment_EEG_version,20,
Nonliving_Things,../experiment_stimuli/bw_bc_bl/Nonliving_Things/Furniture/chair_5.jpg,Furniture,0,chair,0,91,91,15,335.266688976,nV_V,1,335.272331846,336.54938782,0,2,0.200671535684,336.770611494,1,1,0.0603471656796,5,8.0,32,bw,99.7833341387,2019_may_28_1014,015,256,20,5,leyre,Experiment_EEG_version,20,
Nonliving_Things,../experiment_stimuli/bw_bc_bl/Nonliving_Things/Musical_Inst/tuba_13.jpg,Musical_Inst,0,tuba,0,92,92,89,338.573909187,V_nV,2,338.579655713,339.89666195,1,2,0.621580417268,340.538793028,3,0,0.120488406159,5,6.0,32,bw,99.7833341387,2019_may_28_1014,015,256,20,5,leyre,Experiment_EEG_version,20,
Nonliving_Things,../experiment_stimuli/bw_bc_bl/Nonliving_Things/Tools/axe_5.jpg,Tools,0,axe,0,93,93,3,342.392176552,V_nV,2,342.397778986,343.68489643,1,2,0.801969259046,344.507417744,1,1,0.230725037865,5,6.0,32,bw,99.7833341387,2019_may_28_1014,015,256,20,5,leyre,Experiment_EEG_version,20,
Nonliving_Things,../experiment_stimuli/bw_bc_bl/Nonliving_Things/Kitchen_Uten/teapot_5.jpg,Kitchen_Uten,0,teapot,0,94,94,83,346.471043456,V_nV,2,346.478503913,347.78381005,1,2,0.531383848516,348.33573671,3,0,0.120510051958,5,7.0,32,bw,99.7833341387,2019_may_28_1014,015,256,20,5,leyre,Experiment_EEG_version,20,
Living_Things,../experiment_stimuli/bw_bc_bl/Living_Things/Animals/horse_19.jpg,Animals,0,horse,0,95,95,40,350.199156432,V_nV,1,350.204916812,351.491866652,0,2,0.401098909788,351.913520782,3,0,0.0904197613709,5,6.0,32,bw,99.7833341387,2019_may_28_1014,015,256,20,5,leyre,Experiment_EEG_version,20,
