category,probe_path,subcategory,fixation_duration,label,trials.thisRepN,trials.thisTrialN,trials.thisN,trials.thisIndex,image_onset_time,response_window,correctAns,probe_onset,discrim_resptime,response.corr,response.keys,response.rt,visible_resptime,visible.keys,visible.corr,visible.rt,probeFrames,jitter2,n_square,experiment_color,frameRate,date,session,image_size,premask_dur,probeFrames,participant,expName,postmask_dur,
Living_Things,../experiment_stimuli/bw_bc_bl/Living_Things/Marine_creatures/dolphin_5.jpg,Marine_creatures,0,dolphin,0,0,0,23,3.7202903775,V_nV,1,3.7407148222,5.00297615421,1,1,0.330962850247,5.36484385491,2,0,0.0102463460062,5,7.0,32,bw,99.782473388,2019_may_23_1649,015,256,20,5,lierni,Experiment_EEG_version,20,
Living_Things,../experiment_stimuli/bw_bc_bl/Living_Things/Birds/rooster_4.jpg,Birds,0,rooster,0,1,1,70,7.10766397044,nV_V,2,7.11252948758,8.37030024081,0,1,0.150559866335,8.54141400475,1,1,4.26952037262,5,7.0,32,bw,99.782473388,2019_may_23_1649,015,256,20,5,lierni,Experiment_EEG_version,20,
Living_Things,../experiment_stimuli/bw_bc_bl/Living_Things/Insects/ladybird_22.jpg,Insects,0,ladybird,0,2,2,45,14.5438337703,nV_V,2,14.5486932911,15.8365214299,0,1,0.591355406912,16.4484235498,3,0,0.0202631759457,5,6.0,32,bw,99.782473388,2019_may_23_1649,015,256,20,5,lierni,Experiment_EEG_version,20,
Nonliving_Things,../experiment_stimuli/bw_bc_bl/Nonliving_Things/Furniture/couch_4.jpg,Furniture,0,couch,0,3,3,19,18.2017606951,nV_V,1,18.2065202999,19.4744273934,1,1,0.390914465534,19.8858795459,3,0,0.0804522428662,5,8.0,32,bw,99.782473388,2019_may_23_1649,015,256,20,5,lierni,Experiment_EEG_version,20,
Nonliving_Things,../experiment_stimuli/bw_bc_bl/Nonliving_Things/Vehicles/train_15.jpg,Vehicles,0,train,0,4,4,87,21.6993606833,nV_V,1,21.704180148,22.9519815559,1,1,0.0503325534519,23.0228597512,2,0,0.150570700876,5,6.0,32,bw,99.782473388,2019_may_23_1649,015,256,20,5,lierni,Experiment_EEG_version,20,
Living_Things,../experiment_stimuli/bw_bc_bl/Living_Things/Animals/tiger_12.jpg,Animals,0,tiger,0,5,5,84,24.9063255852,nV_V,2,24.9111307724,26.1489377329,1,2,0.411133713555,26.5806108289,1,1,0.170583211118,5,6.0,32,bw,99.782473388,2019_may_23_1649,015,256,20,5,lierni,Experiment_EEG_version,20,
Living_Things,../experiment_stimuli/bw_bc_bl/Living_Things/Animals/turtle_17.jpg,Animals,0,turtle,0,6,6,90,28.4841048161,V_nV,1,28.488962119,29.7367280156,0,2,0.0102440561168,29.7675379051,1,1,0.200675828848,5,6.0,32,bw,99.782473388,2019_may_23_1649,015,256,20,5,lierni,Experiment_EEG_version,20,
Nonliving_Things,../experiment_stimuli/bw_bc_bl/Nonliving_Things/Buildings/palace_19.jpg,Buildings,0,palace,0,7,7,58,31.7010967701,V_nV,2,31.7069924455,32.9637403002,0,1,0.351006766083,33.3353058058,2,0,0.0703725412022,5,7.5,32,bw,99.782473388,2019_may_23_1649,015,256,20,5,lierni,Experiment_EEG_version,20,
Nonliving_Things,../experiment_stimuli/bw_bc_bl/Nonliving_Things/Furniture/table_6.jpg,Furniture,0,table,0,8,8,81,35.1385671457,nV_V,1,35.1433404607,36.3911889994,1,1,0.44119159109,36.8529469653,3,0,0.130504232598,5,6.5,32,bw,99.782473388,2019_may_23_1649,015,256,20,5,lierni,Experiment_EEG_version,20,
Living_Things,../experiment_stimuli/bw_bc_bl/Living_Things/Insects/scorpion_3.jpg,Insects,0,scorpion,0,9,9,73,38.7163665039,nV_V,2,38.7212485394,39.948924829,0,1,0.300890205661,40.270371312,2,0,0.0904258214869,5,7.0,32,bw,99.782473388,2019_may_23_1649,015,256,20,5,lierni,Experiment_EEG_version,20,
Nonliving_Things,../experiment_stimuli/bw_bc_bl/Nonliving_Things/Kitchen_Uten/coking-pot_5.jpg,Kitchen_Uten,0,coking-pot,0,10,10,18,42.0936827937,nV_V,1,42.0984941381,43.3262758476,1,1,0.381058945088,43.7278731263,1,1,0.260822309647,5,6.5,32,bw,99.782473388,2019_may_23_1649,015,256,20,5,lierni,Experiment_EEG_version,20,
Living_Things,../experiment_stimuli/bw_bc_bl/Living_Things/Birds/owl_10.jpg,Birds,0,owl,0,11,11,57,45.7215713027,V_nV,1,45.7263784634,46.9641782511,1,1,0.54124628962,47.525972649,2,0,0.10044035106,5,6.0,32,bw,99.782473388,2019_may_23_1649,015,256,20,5,lierni,Experiment_EEG_version,20,
Nonliving_Things,../experiment_stimuli/bw_bc_bl/Nonliving_Things/Vehicles/van_26.jpg,Vehicles,0,van,0,12,12,91,49.3594812476,nV_V,1,49.3643110695,50.5920576213,1,1,0.521360634593,51.1339639998,2,0,0.130499202292,5,6.0,32,bw,99.782473388,2019_may_23_1649,015,256,20,5,lierni,Experiment_EEG_version,20,
Nonliving_Things,../experiment_stimuli/bw_bc_bl/Nonliving_Things/Buildings/church_9.jpg,Buildings,0,church,0,13,13,17,52.9973897673,V_nV,2,53.0028034756,54.2299651941,1,2,0.35098980437,54.6015199481,1,1,0.100441106828,5,7.5,32,bw,99.782473388,2019_may_23_1649,015,256,20,5,lierni,Experiment_EEG_version,20,
Living_Things,../experiment_stimuli/bw_bc_bl/Living_Things/Birds/seagull_9.jpg,Birds,0,seagull,0,14,14,74,56.4348804997,V_nV,1,56.4409854612,57.6975007027,1,1,0.741838105023,58.459890987,1,1,0.541403678246,5,6.5,32,bw,99.782473388,2019_may_23_1649,015,256,20,5,lierni,Experiment_EEG_version,20,
Nonliving_Things,../experiment_stimuli/bw_bc_bl/Nonliving_Things/Vehicles/car_5.jpg,Vehicles,0,car,0,15,15,11,60.734215141,nV_V,1,60.739039869,62.0068878129,1,1,0.661666629137,62.6890870391,3,0,0.200705317082,5,6.0,32,bw,99.782473388,2019_may_23_1649,015,256,20,5,lierni,Experiment_EEG_version,20,
Nonliving_Things,../experiment_stimuli/bw_bc_bl/Nonliving_Things/Kitchen_Uten/frying-pan_5.jpg,Kitchen_Uten,0,frying-pan,0,16,16,31,64.6226533775,nV_V,1,64.6274091706,65.8652552583,1,1,0.521360244136,66.4071647115,2,0,0.160572440829,5,7.5,32,bw,99.782473388,2019_may_23_1649,015,256,20,5,lierni,Experiment_EEG_version,20,
Living_Things,../experiment_stimuli/bw_bc_bl/Living_Things/Animals/tapir_10.jpg,Animals,0,tapir,0,17,17,82,68.3006469999,nV_V,2,68.3063181858,69.5332269154,1,2,0.260802780278,69.81457404,1,1,0.0803909651004,5,6.0,32,bw,99.782473388,2019_may_23_1649,015,256,20,5,lierni,Experiment_EEG_version,20,
Living_Things,../experiment_stimuli/bw_bc_bl/Living_Things/Birds/duck_4.jpg,Birds,0,duck,0,18,18,26,71.6278750673,nV_V,2,71.6337501034,72.8805048005,1,2,0.711799580371,73.6128613083,3,0,0.120487417327,5,6.5,32,bw,99.782473388,2019_may_23_1649,015,256,20,5,lierni,Experiment_EEG_version,20,
Nonliving_Things,../experiment_stimuli/bw_bc_bl/Nonliving_Things/Buildings/granary_11.jpg,Buildings,0,granary,0,19,19,35,75.4662414305,V_nV,2,75.4711265713,76.6988004325,1,2,0.240759232081,76.960103991,1,1,0.0603540416341,5,6.0,32,bw,99.782473388,2019_may_23_1649,015,256,20,5,lierni,Experiment_EEG_version,20,
Nonliving_Things,../experiment_stimuli/bw_bc_bl/Nonliving_Things/Furniture/bedside-table_9.jpg,Furniture,0,bedside-table,0,20,20,6,78.7533690794,V_nV,2,78.7582242996,80.0059919255,1,2,0.120491101639,80.1470234171,1,1,0.130505867768,5,6.0,32,bw,99.782473388,2019_may_23_1649,015,256,20,5,lierni,Experiment_EEG_version,20,
Living_Things,../experiment_stimuli/bw_bc_bl/Living_Things/Animals/rhino_6.jpg,Animals,0,rhino,0,21,21,68,82.0104508616,V_nV,1,82.0153051983,83.2831237062,1,1,0.310911513167,83.6145707339,3,0,0.150564873824,5,6.0,32,bw,99.782473388,2019_may_23_1649,015,256,20,5,lierni,Experiment_EEG_version,20,
Nonliving_Things,../experiment_stimuli/bw_bc_bl/Nonliving_Things/Musical_Inst/guitar_23.jpg,Musical_Inst,0,guitar,0,22,22,36,85.4980306698,V_nV,2,85.5029191975,86.7506529447,0,1,0.250773990992,87.0219846002,2,0,0.100437899819,5,6.0,32,bw,99.782473388,2019_may_23_1649,015,256,20,5,lierni,Experiment_EEG_version,20,
Nonliving_Things,../experiment_stimuli/bw_bc_bl/Nonliving_Things/Musical_Inst/trumpet_1.jpg,Musical_Inst,0,trumpet,0,23,23,88,88.855337607,nV_V,1,88.8611008853,90.0979281645,1,1,0.571471323259,90.6899403478,3,0,0.120550762163,5,6.0,32,bw,99.782473388,2019_may_23_1649,015,256,20,5,lierni,Experiment_EEG_version,20,
Nonliving_Things,../experiment_stimuli/bw_bc_bl/Nonliving_Things/Vehicles/tractor_21.jpg,Vehicles,0,tractor,0,24,24,86,92.5433446723,nV_V,1,92.5482549067,93.7759231403,0,2,0.350989233004,94.1474643345,1,1,0.09041428403,5,6.5,32,bw,99.782473388,2019_may_23_1649,015,256,20,5,lierni,Experiment_EEG_version,20,
Living_Things,../experiment_stimuli/bw_bc_bl/Living_Things/Animals/armadillo_4.jpg,Animals,0,armadillo,0,25,25,1,95.9707917441,nV_V,2,95.977198848,97.2334426383,1,2,0.721800065367,97.975782458,2,0,0.882153264945,5,6.5,32,bw,99.782473388,2019_may_23_1649,015,256,20,5,lierni,Experiment_EEG_version,20,
Living_Things,../experiment_stimuli/bw_bc_bl/Living_Things/Marine_creatures/sperm-whale_8.jpg,Marine_creatures,0,sperm-whale,0,26,26,80,100.590838067,nV_V,2,100.595614081,101.843461913,0,1,0.210694557521,102.08474827,2,0,0.100438640686,5,6.5,32,bw,99.782473388,2019_may_23_1649,015,256,20,5,lierni,Experiment_EEG_version,20,
Nonliving_Things,../experiment_stimuli/bw_bc_bl/Nonliving_Things/Furniture/wardrobe_1.jpg,Furniture,0,wardrobe,0,27,27,93,103.918066074,nV_V,1,103.922869839,105.160672018,0,2,0.371049381327,105.552276936,2,0,0.18061473663,5,7.0,32,bw,99.782473388,2019_may_23_1649,015,256,20,5,lierni,Experiment_EEG_version,20,
Living_Things,../experiment_stimuli/bw_bc_bl/Living_Things/Animals/lioness_26.jpg,Animals,0,lioness,0,28,28,48,107.465788085,V_nV,1,107.471498089,108.698359158,1,1,0.220723511651,108.93965507,1,1,0.611549783032,5,6.0,32,bw,99.782473388,2019_may_23_1649,015,256,20,5,lierni,Experiment_EEG_version,20,
Living_Things,../experiment_stimuli/bw_bc_bl/Living_Things/Marine_creatures/shark_15.jpg,Marine_creatures,0,shark,0,29,29,75,111.284077145,nV_V,2,111.290539489,112.5266795,0,1,0.741834139219,113.289079295,2,0,0.100449681515,5,6.5,32,bw,99.782473388,2019_may_23_1649,015,256,20,5,lierni,Experiment_EEG_version,20,
Nonliving_Things,../experiment_stimuli/bw_bc_bl/Nonliving_Things/Vehicles/plane_13.jpg,Vehicles,0,plane,0,30,30,64,115.122424941,V_nV,2,115.127282864,116.355002078,0,1,0.72179761366,117.097354289,2,0,0.110311070457,5,6.0,32,bw,99.782473388,2019_may_23_1649,015,256,20,5,lierni,Experiment_EEG_version,20,
Living_Things,../experiment_stimuli/bw_bc_bl/Living_Things/Animals/elephant_5.jpg,Animals,0,elephant,0,31,31,27,118.940724855,nV_V,2,118.946430935,120.173305563,1,2,0.260794509435,120.45464241,1,1,0.0803903974593,5,6.5,32,bw,99.782473388,2019_may_23_1649,015,256,20,5,lierni,Experiment_EEG_version,20,
Living_Things,../experiment_stimuli/bw_bc_bl/Living_Things/Birds/barn-owl_15.jpg,Birds,0,barn-owl,0,32,32,4,122.267960516,V_nV,1,122.272769846,123.510557679,1,1,0.391086552991,123.922212539,2,0,0.721786768176,5,6.0,32,bw,99.782473388,2019_may_23_1649,015,256,20,5,lierni,Experiment_EEG_version,20,
Nonliving_Things,../experiment_stimuli/bw_bc_bl/Nonliving_Things/Musical_Inst/tuba_13.jpg,Musical_Inst,0,tuba,0,33,33,89,126.376888689,V_nV,2,126.381791261,127.609471724,1,2,0.37103626132,128.001050691,3,0,0.0803923110943,5,6.0,32,bw,99.782473388,2019_may_23_1649,015,256,20,5,lierni,Experiment_EEG_version,20,
Living_Things,../experiment_stimuli/bw_bc_bl/Living_Things/Birds/hummingbird_4.jpg,Birds,0,hummingbird,0,34,34,42,129.814360636,nV_V,2,129.819364598,131.046939878,1,2,0.0302935324144,131.097791075,3,0,0.170590632129,5,6.5,32,bw,99.782473388,2019_may_23_1649,015,256,20,5,lierni,Experiment_EEG_version,20,
Living_Things,../experiment_stimuli/bw_bc_bl/Living_Things/Marine_creatures/narwhal_16.jpg,Marine_creatures,0,narwhal,0,35,35,55,133.001290776,nV_V,2,133.008033499,134.233868364,0,1,0.250769742997,134.505188335,2,0,0.0603488576598,5,8.0,32,bw,99.782473388,2019_may_23_1649,015,256,20,5,lierni,Experiment_EEG_version,20,
Living_Things,../experiment_stimuli/bw_bc_bl/Living_Things/Birds/penguin_24.jpg,Birds,0,penguin,0,36,36,61,136.298454909,V_nV,1,136.30342065,137.531036441,1,1,0.220704921754,137.772307621,2,0,0.0503278169781,5,8.0,32,bw,99.782473388,2019_may_23_1649,015,256,20,5,lierni,Experiment_EEG_version,20,
Living_Things,../experiment_stimuli/bw_bc_bl/Living_Things/Marine_creatures/whale_15.jpg,Marine_creatures,0,whale,0,37,37,94,139.555561052,nV_V,2,139.560403107,140.788119302,1,2,0.250769671751,141.059455638,1,1,0.170593463117,5,6.0,32,bw,99.782473388,2019_may_23_1649,015,256,20,5,lierni,Experiment_EEG_version,20,
Living_Things,../experiment_stimuli/bw_bc_bl/Living_Things/Animals/horse_19.jpg,Animals,0,horse,0,38,38,40,142.962946835,V_nV,1,142.967881615,144.2055446,0,2,0.651649686042,144.877742138,2,0,0.391069609672,5,6.0,32,bw,99.782473388,2019_may_23_1649,015,256,20,5,lierni,Experiment_EEG_version,20,
Nonliving_Things,../experiment_stimuli/bw_bc_bl/Nonliving_Things/Musical_Inst/saxophone_13.jpg,Musical_Inst,0,saxophone,0,39,39,72,147.00172399,nV_V,1,147.008564671,148.234302924,0,2,0.220706880558,148.475573638,1,1,0.120484000305,5,6.0,32,bw,99.782473388,2019_may_23_1649,015,256,20,5,lierni,Experiment_EEG_version,20,
Living_Things,../experiment_stimuli/bw_bc_bl/Living_Things/Animals/zebra_22.jpg,Animals,0,zebra,0,40,40,95,150.328956493,nV_V,2,150.333851983,151.571557137,0,1,0.0401489213109,151.632270185,2,0,0.120484443847,5,6.5,32,bw,99.782473388,2019_may_23_1649,015,256,20,5,lierni,Experiment_EEG_version,20,
Nonliving_Things,../experiment_stimuli/bw_bc_bl/Nonliving_Things/Furniture/rocking-chair_24.jpg,Furniture,0,rocking-chair,0,41,41,69,153.485817933,nV_V,1,153.490758948,154.718396058,1,1,0.54140818608,155.28036595,3,0,0.090422073612,5,6.5,32,bw,99.782473388,2019_may_23_1649,015,256,20,5,lierni,Experiment_EEG_version,20,
Nonliving_Things,../experiment_stimuli/bw_bc_bl/Nonliving_Things/Vehicles/boat_12.jpg,Vehicles,0,boat,0,42,42,7,157.103685236,V_nV,2,157.108525686,158.336268185,0,1,0.250777119305,158.607605998,2,0,0.0302793558221,5,6.0,32,bw,99.782473388,2019_may_23_1649,015,256,20,5,lierni,Experiment_EEG_version,20,
Nonliving_Things,../experiment_stimuli/bw_bc_bl/Nonliving_Things/Kitchen_Uten/teapot_5.jpg,Kitchen_Uten,0,teapot,0,43,43,83,160.370786345,nV_V,1,160.375606328,161.603366109,0,2,0.461224864703,162.085166171,1,1,0.160574542359,5,6.0,32,bw,99.782473388,2019_may_23_1649,015,256,20,5,lierni,Experiment_EEG_version,20,
Nonliving_Things,../experiment_stimuli/bw_bc_bl/Nonliving_Things/Buildings/cathedral_20.jpg,Buildings,0,cathedral,0,44,44,14,163.978637761,V_nV,2,163.983468707,165.231253476,1,2,0.33094768133,165.582749532,2,0,0.170438175555,5,6.5,32,bw,99.782473388,2019_may_23_1649,015,256,20,5,lierni,Experiment_EEG_version,20,
Nonliving_Things,../experiment_stimuli/bw_bc_bl/Nonliving_Things/Tools/hammer_10.jpg,Tools,0,hammer,0,45,45,37,167.486250673,V_nV,2,167.491186791,168.728851592,0,1,0.24076381512,168.990206085,2,0,0.0503489144612,5,6.5,32,bw,99.782473388,2019_may_23_1649,015,256,20,5,lierni,Experiment_EEG_version,20,
Nonliving_Things,../experiment_stimuli/bw_bc_bl/Nonliving_Things/Kitchen_Uten/small-saucepan_15.jpg,Kitchen_Uten,0,small-saucepan,0,46,46,77,170.773405799,nV_V,1,170.778278519,172.005979591,1,1,0.0403216255363,172.066852361,2,0,0.100438836031,5,7.0,32,bw,99.782473388,2019_may_23_1649,015,256,20,5,lierni,Experiment_EEG_version,20,
Living_Things,../experiment_stimuli/bw_bc_bl/Living_Things/Birds/goldfinch_24.jpg,Birds,0,goldfinch,0,47,47,33,173.900216019,nV_V,2,173.905116434,175.132777983,1,2,0.25078247604,175.404116135,1,1,0.110464414582,5,6.0,32,bw,99.782473388,2019_may_23_1649,015,256,20,5,lierni,Experiment_EEG_version,20,
Nonliving_Things,../experiment_stimuli/bw_bc_bl/Nonliving_Things/Kitchen_Uten/pot_18.jpg,Kitchen_Uten,0,pot,0,48,48,66,177.247465942,nV_V,1,177.252344289,178.490090634,0,2,0.040313918842,178.55094889,1,1,0.200660547242,5,6.5,32,bw,99.782473388,2019_may_23_1649,015,256,20,5,lierni,Experiment_EEG_version,20,
Nonliving_Things,../experiment_stimuli/bw_bc_bl/Nonliving_Things/Furniture/sofa_2.jpg,Furniture,0,sofa,0,49,49,78,180.484517706,nV_V,1,180.490409163,181.757173476,1,1,0.491294241976,182.269020082,2,0,0.0703740261961,5,6.0,32,bw,99.782473388,2019_may_23_1649,015,256,20,5,lierni,Experiment_EEG_version,20,
Nonliving_Things,../experiment_stimuli/bw_bc_bl/Nonliving_Things/Musical_Inst/drum_24.jpg,Musical_Inst,0,drum,0,50,50,25,184.072328259,V_nV,2,184.078288949,185.334959541,1,2,0.521360063693,185.876858202,3,0,0.060354575282,5,7.0,32,bw,99.782473388,2019_may_23_1649,015,256,20,5,lierni,Experiment_EEG_version,20,
Living_Things,../experiment_stimuli/bw_bc_bl/Living_Things/Birds/hen_17.jpg,Birds,0,hen,0,51,51,38,187.670127008,V_nV,1,187.675102219,188.902711153,0,2,0.411146168364,189.334408917,3,0,0.070374334231,5,6.0,32,bw,99.782473388,2019_may_23_1649,015,256,20,5,lierni,Experiment_EEG_version,20,
Nonliving_Things,../experiment_stimuli/bw_bc_bl/Nonliving_Things/Musical_Inst/violin_26.jpg,Musical_Inst,0,violin,0,52,52,92,191.137665776,nV_V,1,191.142603886,192.37025136,1,1,0.661674121628,193.05249824,2,0,0.050337466877,5,6.5,32,bw,99.782473388,2019_may_23_1649,015,256,20,5,lierni,Experiment_EEG_version,20,
Living_Things,../experiment_stimuli/bw_bc_bl/Living_Things/Animals/cheetah_5.jpg,Animals,0,cheetah,0,53,53,16,194.835711138,nV_V,2,194.840700157,196.068288234,0,1,0.0804032657761,196.169233438,1,1,0.30086769117,5,6.0,32,bw,99.782473388,2019_may_23_1649,015,256,20,5,lierni,Experiment_EEG_version,20,
Living_Things,../experiment_stimuli/bw_bc_bl/Living_Things/Marine_creatures/crab_3.jpg,Marine_creatures,0,crab,0,54,54,21,198.203025417,V_nV,1,198.208033138,199.46567136,1,1,0.581498668063,200.067724204,3,0,0.130506819114,5,6.5,32,bw,99.782473388,2019_may_23_1649,015,256,20,5,lierni,Experiment_EEG_version,20,
Nonliving_Things,../experiment_stimuli/bw_bc_bl/Nonliving_Things/Furniture/chair_5.jpg,Furniture,0,chair,0,55,55,15,201.931136863,nV_V,1,201.936091337,203.173743281,0,2,0.260795964161,203.455069282,1,1,0.100437749643,5,7.0,32,bw,99.782473388,2019_may_23_1649,015,256,20,5,lierni,Experiment_EEG_version,20,
Living_Things,../experiment_stimuli/bw_bc_bl/Living_Things/Birds/goose_18.jpg,Birds,0,goose,0,56,56,34,205.288452491,V_nV,1,205.293376139,206.551074961,1,1,0.371047269087,206.942675086,2,0,0.0902670416981,5,7.0,32,bw,99.782473388,2019_may_23_1649,015,256,20,5,lierni,Experiment_EEG_version,20,
Nonliving_Things,../experiment_stimuli/bw_bc_bl/Nonliving_Things/Furniture/armchair_11.jpg,Furniture,0,armchair,0,57,57,2,208.765990834,V_nV,2,208.772011192,210.018612215,1,2,0.34098304552,210.380150093,2,0,0.290854202816,5,7.5,32,bw,99.782473388,2019_may_23_1649,015,256,20,5,lierni,Experiment_EEG_version,20,
Nonliving_Things,../experiment_stimuli/bw_bc_bl/Nonliving_Things/Kitchen_Uten/saucepan_2.jpg,Kitchen_Uten,0,saucepan,0,58,58,71,212.403907546,nV_V,1,212.408771303,213.646499051,1,1,0.521362942876,214.188421117,3,0,0.170620165532,5,6.0,32,bw,99.782473388,2019_may_23_1649,015,256,20,5,lierni,Experiment_EEG_version,20,
Living_Things,../experiment_stimuli/bw_bc_bl/Living_Things/Birds/magpie_2.jpg,Birds,0,magpie,0,59,59,51,216.091910457,nV_V,2,216.09681247,217.324497283,1,2,0.280858101556,217.625893086,1,1,0.0403074526694,5,6.0,32,bw,99.782473388,2019_may_23_1649,015,256,20,5,lierni,Experiment_EEG_version,20,
Nonliving_Things,../experiment_stimuli/bw_bc_bl/Nonliving_Things/Buildings/mill_23.jpg,Buildings,0,mill,0,60,60,53,219.399123781,nV_V,1,219.404169472,220.651728259,1,1,0.0202730931342,220.702586512,2,0,0.140531976242,5,6.0,32,bw,99.782473388,2019_may_23_1649,015,256,20,5,lierni,Experiment_EEG_version,20,
Living_Things,../experiment_stimuli/bw_bc_bl/Living_Things/Animals/lynx_16.jpg,Animals,0,lynx,0,61,61,50,222.576011708,nV_V,2,222.580962626,223.818630776,0,1,0.0202757888474,223.85943994,2,0,0.120532642119,5,6.0,32,bw,99.782473388,2019_may_23_1649,015,256,20,5,lierni,Experiment_EEG_version,20,
Living_Things,../experiment_stimuli/bw_bc_bl/Living_Things/Animals/hippopotamus_8.jpg,Animals,0,hippopotamus,0,62,62,39,225.712824919,nV_V,2,225.717658978,226.955433059,1,2,0.491293279687,227.467279353,3,0,0.120497676544,5,6.5,32,bw,99.782473388,2019_may_23_1649,015,256,20,5,lierni,Experiment_EEG_version,20,
Living_Things,../experiment_stimuli/bw_bc_bl/Living_Things/Birds/partridge_9.jpg,Birds,0,partridge,0,63,63,59,229.320688339,V_nV,1,229.325541778,230.553263514,1,1,0.150398612954,230.724186251,3,0,0.190636811312,5,6.0,32,bw,99.782473388,2019_may_23_1649,015,256,20,5,lierni,Experiment_EEG_version,20,
Nonliving_Things,../experiment_stimuli/bw_bc_bl/Nonliving_Things/Furniture/filling-cabinet_25.jpg,Furniture,0,filling-cabinet,0,64,64,29,232.64789914,nV_V,1,232.652700681,233.880487536,0,2,0.4111340784,234.312183741,1,1,0.140526423464,5,6.5,32,bw,99.782473388,2019_may_23_1649,015,256,20,5,lierni,Experiment_EEG_version,20,
Living_Things,../experiment_stimuli/bw_bc_bl/Living_Things/Marine_creatures/pomfret_18.jpg,Marine_creatures,0,pomfret,0,65,65,65,236.185593843,V_nV,1,236.190575253,237.45826294,0,2,0.531385607785,238.020215456,3,0,0.100445531309,5,6.0,32,bw,99.782473388,2019_may_23_1649,015,256,20,5,lierni,Experiment_EEG_version,20,
Living_Things,../experiment_stimuli/bw_bc_bl/Living_Things/Insects/butterfly_4.jpg,Insects,0,butterfly,0,66,66,10,239.853570707,nV_V,2,239.859769555,241.096174223,1,2,0.491330218967,241.608059554,3,0,0.0603494516108,5,6.5,32,bw,99.782473388,2019_may_23_1649,015,256,20,5,lierni,Experiment_EEG_version,20,
Living_Things,../experiment_stimuli/bw_bc_bl/Living_Things/Birds/pigeon_7.jpg,Birds,0,pigeon,0,67,67,63,243.40128368,V_nV,1,243.407459735,244.643881249,1,1,0.29094272037,244.95537886,2,0,0.561287337448,5,6.0,32,bw,99.782473388,2019_may_23_1649,015,256,20,5,lierni,Experiment_EEG_version,20,
Nonliving_Things,../experiment_stimuli/bw_bc_bl/Nonliving_Things/Furniture/lamp_3.jpg,Furniture,0,lamp,0,68,68,46,247.249646551,V_nV,2,247.254547748,248.482226335,1,2,0.0303002237342,248.533083467,1,1,0.17044683313,5,7.0,32,bw,99.782473388,2019_may_23_1649,015,256,20,5,lierni,Experiment_EEG_version,20,
Nonliving_Things,../experiment_stimuli/bw_bc_bl/Nonliving_Things/Furniture/lectern_6.jpg,Furniture,0,lectern,0,69,69,47,250.436569725,V_nV,2,250.441424769,251.679181282,0,1,0.130532352719,251.830266235,2,0,0.130501487991,5,6.5,32,bw,99.782473388,2019_may_23_1649,015,256,20,5,lierni,Experiment_EEG_version,20,
Nonliving_Things,../experiment_stimuli/bw_bc_bl/Nonliving_Things/Tools/axe_5.jpg,Tools,0,axe,0,70,70,3,253.693664184,V_nV,2,253.699969244,254.926235701,1,2,0.300885175588,255.247663161,1,1,0.0904185359832,5,6.0,32,bw,99.782473388,2019_may_23_1649,015,256,20,5,lierni,Experiment_EEG_version,20,
Nonliving_Things,../experiment_stimuli/bw_bc_bl/Nonliving_Things/Buildings/castle_21.jpg,Buildings,0,castle,0,71,71,12,257.070995676,V_nV,2,257.07589026,258.313610463,0,1,0.260803103447,258.594974166,1,1,0.200662438525,5,6.0,32,bw,99.782473388,2019_may_23_1649,015,256,20,5,lierni,Experiment_EEG_version,20,
Nonliving_Things,../experiment_stimuli/bw_bc_bl/Nonliving_Things/Musical_Inst/piano__3.jpg,Musical_Inst,0,piano,0,72,72,62,260.528512287,V_nV,2,260.534823261,261.781154697,1,2,0.371046336368,262.172752577,2,0,0.180613597389,5,7.5,32,bw,99.782473388,2019_may_23_1649,015,256,20,5,lierni,Experiment_EEG_version,20,
Living_Things,../experiment_stimuli/bw_bc_bl/Living_Things/Birds/raven_15.jpg,Birds,0,raven,0,73,73,67,264.086243388,nV_V,2,264.091117908,265.328860024,0,1,0.561287544435,265.910695334,1,1,0.21068036207,5,6.5,32,bw,99.782473388,2019_may_23_1649,015,256,20,5,lierni,Experiment_EEG_version,20,
Living_Things,../experiment_stimuli/bw_bc_bl/Living_Things/Birds/sparrow_22.jpg,Birds,0,sparrow,0,74,74,79,267.854439797,V_nV,1,267.859578277,269.117085395,1,1,0.381054189522,269.518703094,3,0,0.130504728993,5,7.5,32,bw,99.782473388,2019_may_23_1649,015,256,20,5,lierni,Experiment_EEG_version,20,
Living_Things,../experiment_stimuli/bw_bc_bl/Living_Things/Marine_creatures/lobster_25.jpg,Marine_creatures,0,lobster,0,75,75,49,271.382104137,nV_V,2,271.387120046,272.614690684,0,1,0.079367720522,272.715653599,2,0,0.120486714412,5,6.0,32,bw,99.782473388,2019_may_23_1649,015,256,20,5,lierni,Experiment_EEG_version,20,
Nonliving_Things,../experiment_stimuli/bw_bc_bl/Nonliving_Things/Kitchen_Uten/cup_0.jpg,Kitchen_Uten,0,cup,0,76,76,22,274.569034243,V_nV,2,274.576829214,275.801623606,0,1,0.180620071013,276.002775871,1,1,0.571464082925,5,6.0,32,bw,99.782473388,2019_may_23_1649,015,256,20,5,lierni,Experiment_EEG_version,20,
Nonliving_Things,../experiment_stimuli/bw_bc_bl/Nonliving_Things/Buildings/factory_14.jpg,Buildings,0,factory,0,77,77,28,278.307163177,V_nV,2,278.312245454,279.559787467,1,2,0.461235909723,280.041579714,1,1,0.19063317962,5,6.0,32,bw,99.782473388,2019_may_23_1649,015,256,20,5,lierni,Experiment_EEG_version,20,
Living_Things,../experiment_stimuli/bw_bc_bl/Living_Things/Animals/cat_3.jpg,Animals,0,cat,0,78,78,13,281.965118486,V_nV,1,281.970105895,283.237789368,1,1,0.370873989305,283.629201864,3,0,0.180692795664,5,6.0,32,bw,99.782473388,2019_may_23_1649,015,256,20,5,lierni,Experiment_EEG_version,20,
Nonliving_Things,../experiment_stimuli/bw_bc_bl/Nonliving_Things/Furniture/Chest-of-drawers_14.jpg,Furniture,0,Chest-of-drawers,0,79,79,0,285.542887916,nV_V,1,285.547844939,286.785494022,1,1,0.541243331274,287.347277995,2,0,0.160572339548,5,6.0,32,bw,99.782473388,2019_may_23_1649,015,256,20,5,lierni,Experiment_EEG_version,20,
Living_Things,../experiment_stimuli/bw_bc_bl/Living_Things/Birds/kiwi_0.jpg,Birds,0,kiwi,0,80,80,44,289.240931172,nV_V,2,289.24602693,290.473511038,1,2,0.491295494139,290.985365287,1,1,0.0703783379868,5,6.5,32,bw,99.782473388,2019_may_23_1649,015,256,20,5,lierni,Experiment_EEG_version,20,
Nonliving_Things,../experiment_stimuli/bw_bc_bl/Nonliving_Things/Vehicles/motorbike_4.jpg,Vehicles,0,motorbike,0,81,81,54,292.788650393,V_nV,2,292.793681705,294.031249977,1,2,0.872120239073,294.923904325,3,0,0.100441986462,5,6.0,32,bw,99.782473388,2019_may_23_1649,015,256,20,5,lierni,Experiment_EEG_version,20,
Living_Things,../experiment_stimuli/bw_bc_bl/Living_Things/Insects/dragonfly_22.jpg,Insects,0,dragonfly,0,82,82,24,296.757265703,nV_V,2,296.762382281,297.989853385,1,2,0.551435346948,298.561837912,2,0,0.200662118616,5,7.5,32,bw,99.782473388,2019_may_23_1649,015,256,20,5,lierni,Experiment_EEG_version,20,
Nonliving_Things,../experiment_stimuli/bw_bc_bl/Nonliving_Things/Kitchen_Uten/fondue_13.jpg,Kitchen_Uten,0,fondue,0,83,83,30,300.495398841,V_nV,2,300.500541072,301.727976605,1,2,0.0904267386068,301.838966076,1,1,0.160415721592,5,6.0,32,bw,99.782473388,2019_may_23_1649,015,256,20,5,lierni,Experiment_EEG_version,20,
Living_Things,../experiment_stimuli/bw_bc_bl/Living_Things/Animals/giraffe_9.jpg,Animals,0,giraffe,0,84,84,32,303.73243238,nV_V,2,303.737671632,304.975053753,1,2,1.80415789504,306.799756079,3,0,0.120483902516,5,6.0,32,bw,99.782473388,2019_may_23_1649,015,256,20,5,lierni,Experiment_EEG_version,20,
Nonliving_Things,../experiment_stimuli/bw_bc_bl/Nonliving_Things/Furniture/bookcase_17.jpg,Furniture,0,bookcase,0,85,85,8,308.653131761,nV_V,1,308.658309755,309.8857075,1,1,0.200740474509,310.107004346,1,1,0.250776584959,5,6.5,32,bw,99.782473388,2019_may_23_1649,015,256,20,5,lierni,Experiment_EEG_version,20,
Living_Things,../experiment_stimuli/bw_bc_bl/Living_Things/Marine_creatures/manatee_7.jpg,Marine_creatures,0,manatee,0,86,86,52,312.090600584,V_nV,1,312.095687583,313.353248956,1,1,0.551262439694,313.925072601,2,0,0.0804017058108,5,6.0,32,bw,99.782473388,2019_may_23_1649,015,256,20,5,lierni,Experiment_EEG_version,20,
Living_Things,../experiment_stimuli/bw_bc_bl/Living_Things/Animals/cow_4.jpg,Animals,0,cow,0,87,87,20,315.738534791,V_nV,1,315.743698406,316.991159792,0,2,0.391091932775,317.402803242,3,0,0.0603500490543,5,7.0,32,bw,99.782473388,2019_may_23_1649,015,256,20,5,lierni,Experiment_EEG_version,20,
Nonliving_Things,../experiment_stimuli/bw_bc_bl/Nonliving_Things/Buildings/house_8.jpg,Buildings,0,house,0,88,88,41,319.19604888,nV_V,1,319.201185874,320.438649501,0,2,0.300882687327,320.760099856,1,1,0.160416014958,5,6.0,32,bw,99.782473388,2019_may_23_1649,015,256,20,5,lierni,Experiment_EEG_version,20,
Living_Things,../experiment_stimuli/bw_bc_bl/Living_Things/Birds/pelican_5.jpg,Birds,0,pelican,0,89,89,60,322.663589843,V_nV,1,322.668789322,323.926236866,1,1,0.611562162405,324.558344316,2,0,0.0404113049153,5,6.0,32,bw,99.782473388,2019_may_23_1649,015,256,20,5,lierni,Experiment_EEG_version,20,
Nonliving_Things,../experiment_stimuli/bw_bc_bl/Nonliving_Things/Vehicles/bus_26.jpg,Vehicles,0,bus,0,90,90,9,326.331558741,nV_V,1,326.336757249,327.584189839,1,1,0.53139118664,328.136118716,3,0,0.110515642911,5,6.5,32,bw,99.782473388,2019_may_23_1649,015,256,20,5,lierni,Experiment_EEG_version,20,
Living_Things,../experiment_stimuli/bw_bc_bl/Living_Things/Birds/toucan_4.jpg,Birds,0,toucan,0,91,91,85,329.979496407,V_nV,1,329.984777658,331.222101216,1,1,0.411126322579,331.653767177,2,0,0.0603712671436,5,6.0,32,bw,99.782473388,2019_may_23_1649,015,256,20,5,lierni,Experiment_EEG_version,20,
Nonliving_Things,../experiment_stimuli/bw_bc_bl/Nonliving_Things/Furniture/bed_19.jpg,Furniture,0,bed,0,92,92,5,333.447028355,V_nV,2,333.452242736,334.679620221,1,2,0.2307296691,334.930888525,1,1,0.0303001373541,5,6.0,32,bw,99.782473388,2019_may_23_1649,015,256,20,5,lierni,Experiment_EEG_version,20,
Nonliving_Things,../experiment_stimuli/bw_bc_bl/Nonliving_Things/Vehicles/ship_21.jpg,Vehicles,0,ship,0,93,93,76,336.694088029,nV_V,1,336.699356082,337.956742991,1,1,0.501319726231,338.478595465,2,0,0.0503297864925,5,6.0,32,bw,99.782473388,2019_may_23_1649,015,256,20,5,lierni,Experiment_EEG_version,20,
Living_Things,../experiment_stimuli/bw_bc_bl/Living_Things/Birds/ostrich_17.jpg,Birds,0,ostrich,0,94,94,56,340.261845998,V_nV,1,340.267240454,341.51447149,1,1,0.411124717211,341.946149977,2,0,0.0904294869397,5,6.0,32,bw,99.782473388,2019_may_23_1649,015,256,20,5,lierni,Experiment_EEG_version,20,
Living_Things,../experiment_stimuli/bw_bc_bl/Living_Things/Marine_creatures/killer-whale_1.jpg,Marine_creatures,0,killer-whale,0,95,95,43,343.769475537,V_nV,1,343.774796563,345.012073039,0,2,0.320929332403,345.353557505,3,0,0.110461764038,5,7.5,32,bw,99.782473388,2019_may_23_1649,015,256,20,5,lierni,Experiment_EEG_version,20,
