category,probe_path,subcategory,fixation_duration,label,trials.thisRepN,trials.thisTrialN,trials.thisN,trials.thisIndex,image_onset_time,response_window,correctAns,probe_onset,discrim_resptime,response.corr,response.keys,response.rt,visible_resptime,visible.keys,visible.corr,visible.rt,probeFrames,jitter2,n_square,experiment_color,frameRate,date,session,image_size,premask_dur,probeFrames,participant,expName,postmask_dur,
Living_Things,../experiment_stimuli/bw_bc_bl/Living_Things/Animals/rhino_17.jpg,Animals,0,rhino,0,0,0,68,3.72085137363,nV_V,2,3.74156346032,5.00352522521,0,1,0.611565970816,5.6459281079,2,0,0.0902669853531,5,6.0,32,bw,99.7814663773,2019_may_23_1630,013,256,20,5,lierni,Experiment_EEG_version,20,
Nonliving_Things,../experiment_stimuli/bw_bc_bl/Nonliving_Things/Furniture/bed_6.jpg,Furniture,0,bed,0,1,1,5,7.46897683758,nV_V,1,7.47429135884,8.73162389337,0,2,0.340971432626,9.09315182106,3,0,0.180617943173,5,6.0,32,bw,99.7814663773,2019_may_23_1630,013,256,20,5,lierni,Experiment_EEG_version,20,
Nonliving_Things,../experiment_stimuli/bw_bc_bl/Nonliving_Things/Vehicles/car_19.jpg,Vehicles,0,car,0,2,2,11,11.0066737437,V_nV,2,11.0115464295,12.2392508469,1,2,0.461245025974,12.7210600669,1,1,0.0102530638687,5,6.0,32,bw,99.7814663773,2019_may_23_1630,013,256,20,5,lierni,Experiment_EEG_version,20,
Living_Things,../experiment_stimuli/bw_bc_bl/Living_Things/Birds/kiwi_7.jpg,Birds,0,kiwi,0,3,3,44,14.4641811443,nV_V,2,14.469545447,15.7067957879,0,1,0.441184741678,16.1685262653,2,0,0.0904199681245,5,6.5,32,bw,99.7814663773,2019_may_23_1630,013,256,20,5,lierni,Experiment_EEG_version,20,
Living_Things,../experiment_stimuli/bw_bc_bl/Living_Things/Birds/ostrich_26.jpg,Birds,0,ostrich,0,4,4,56,17.9918503219,nV_V,2,17.9966388959,19.2244371015,1,2,0.150552791078,19.3955383503,1,1,0.0503340084106,5,7.0,32,bw,99.7814663773,2019_may_23_1630,013,256,20,5,lierni,Experiment_EEG_version,20,
Living_Things,../experiment_stimuli/bw_bc_bl/Living_Things/Birds/goldfinch_0.jpg,Birds,0,goldfinch,0,5,5,33,21.1787832251,nV_V,2,21.1836340318,22.4314020567,1,2,0.481328937691,22.9332820754,3,0,0.080398461083,5,6.5,32,bw,99.7814663773,2019_may_23_1630,013,256,20,5,lierni,Experiment_EEG_version,20,
Nonliving_Things,../experiment_stimuli/bw_bc_bl/Nonliving_Things/Kitchen_Uten/saucepan_10.jpg,Kitchen_Uten,0,saucepan,0,6,6,71,24.746534765,nV_V,1,24.7515746702,25.979114203,1,1,0.0603565303609,26.0600091121,1,1,0.581325599225,5,6.5,32,bw,99.7814663773,2019_may_23_1630,013,256,20,5,lierni,Experiment_EEG_version,20,
Living_Things,../experiment_stimuli/bw_bc_bl/Living_Things/Birds/raven_4.jpg,Birds,0,raven,0,7,7,67,28.3744183383,V_nV,1,28.3803214943,29.6170210235,1,1,0.280928788707,29.9185098074,1,1,0.641619570553,5,6.0,32,bw,99.7814663773,2019_may_23_1630,013,256,20,5,lierni,Experiment_EEG_version,20,
Living_Things,../experiment_stimuli/bw_bc_bl/Living_Things/Birds/barn-owl_12.jpg,Birds,0,barn-owl,0,8,8,4,32.2929379332,nV_V,2,32.2978757236,33.5656051468,1,2,0.541412174469,34.1275616852,3,0,0.100441994146,5,6.5,32,bw,99.7814663773,2019_may_23_1630,013,256,20,5,lierni,Experiment_EEG_version,20,
Living_Things,../experiment_stimuli/bw_bc_bl/Living_Things/Animals/zebra_12.jpg,Animals,0,zebra,0,9,9,95,35.9609097783,V_nV,1,35.9658257305,37.203520332,0,2,0.0603574211709,37.2844119591,2,0,0.521356973099,5,6.0,32,bw,99.7814663773,2019_may_23_1630,013,256,20,5,lierni,Experiment_EEG_version,20,
Living_Things,../experiment_stimuli/bw_bc_bl/Living_Things/Animals/cheetah_14.jpg,Animals,0,cheetah,0,10,10,16,39.5386812836,nV_V,2,39.5436045101,40.7712656425,1,2,0.270831057336,41.0626600594,1,1,0.0603498050477,5,6.5,32,bw,99.7814663773,2019_may_23_1630,013,256,20,5,lierni,Experiment_EEG_version,20,
Living_Things,../experiment_stimuli/bw_bc_bl/Living_Things/Insects/ladybird_19.jpg,Insects,0,ladybird,0,11,11,45,42.8558942913,nV_V,2,42.8613440287,44.1185478247,0,1,0.52135881898,44.6604752515,2,0,0.0703718191944,5,6.0,32,bw,99.7814663773,2019_may_23_1630,013,256,20,5,lierni,Experiment_EEG_version,20,
Living_Things,../experiment_stimuli/bw_bc_bl/Living_Things/Marine_creatures/whale_1.jpg,Marine_creatures,0,whale,0,12,12,94,46.4637389297,V_nV,1,46.468498993,47.7163585427,1,1,0.811986976769,48.5488903304,3,0,0.040333061479,5,6.0,32,bw,99.7814663773,2019_may_23_1630,013,256,20,5,lierni,Experiment_EEG_version,20,
Nonliving_Things,../experiment_stimuli/bw_bc_bl/Nonliving_Things/Furniture/table_5.jpg,Furniture,0,table,0,13,13,81,50.3221255064,nV_V,1,50.3275820634,51.5547141321,1,1,0.581493901554,52.1567453558,2,0,0.0904210850131,5,6.0,32,bw,99.7814663773,2019_may_23_1630,013,256,20,5,lierni,Experiment_EEG_version,20,
Nonliving_Things,../experiment_stimuli/bw_bc_bl/Nonliving_Things/Kitchen_Uten/teapot_12.jpg,Kitchen_Uten,0,teapot,0,14,14,83,53.9800716941,nV_V,1,53.9856096522,55.2126595567,0,2,0.451206278522,55.6844128943,3,0,0.0804111005273,5,6.0,32,bw,99.7814663773,2019_may_23_1630,013,256,20,5,lierni,Experiment_EEG_version,20,
Nonliving_Things,../experiment_stimuli/bw_bc_bl/Nonliving_Things/Musical_Inst/trumpet_13.jpg,Musical_Inst,0,trumpet,0,15,15,88,57.4977186918,V_nV,2,57.502631678,58.7303048479,0,1,0.150561448885,58.9014215325,1,1,0.451201417716,5,6.0,32,bw,99.7814663773,2019_may_23_1630,013,256,20,5,lierni,Experiment_EEG_version,20,
Living_Things,../experiment_stimuli/bw_bc_bl/Living_Things/Animals/elephant_6.jpg,Animals,0,elephant,0,16,16,27,61.0855162491,V_nV,1,61.0903335258,62.3381430728,1,1,0.300879172049,62.6595759918,3,0,0.0902631699573,5,7.0,32,bw,99.7814663773,2019_may_23_1630,013,256,20,5,lierni,Experiment_EEG_version,20,
Nonliving_Things,../experiment_stimuli/bw_bc_bl/Nonliving_Things/Musical_Inst/saxophone_25.jpg,Musical_Inst,0,saxophone,0,17,17,72,64.4829046198,nV_V,1,64.4885447118,65.715484238,1,1,0.200660472037,65.936704848,2,0,0.0102421990596,5,6.0,32,bw,99.7814663773,2019_may_23_1630,013,256,20,5,lierni,Experiment_EEG_version,20,
Living_Things,../experiment_stimuli/bw_bc_bl/Living_Things/Insects/dragonfly_19.jpg,Insects,0,dragonfly,0,18,18,24,67.6798558647,V_nV,1,67.6846805851,68.9124365281,0,2,0.330951933283,69.2639340991,1,1,0.120480541606,5,6.0,32,bw,99.7814663773,2019_may_23_1630,013,256,20,5,lierni,Experiment_EEG_version,20,
Nonliving_Things,../experiment_stimuli/bw_bc_bl/Nonliving_Things/Musical_Inst/guitar_12.jpg,Musical_Inst,0,guitar,0,19,19,36,71.1173311197,nV_V,1,71.1221572158,72.3799733338,1,1,0.611595083028,73.0121260623,3,0,0.0302860098891,5,7.0,32,bw,99.7814663773,2019_may_23_1630,013,256,20,5,lierni,Experiment_EEG_version,20,
Nonliving_Things,../experiment_stimuli/bw_bc_bl/Nonliving_Things/Vehicles/train_0.jpg,Vehicles,0,train,0,20,20,87,74.7752809015,nV_V,1,74.780120133,76.0178798386,1,1,0.69173046574,76.7301551229,2,0,0.0603456809185,5,7.5,32,bw,99.7814663773,2019_may_23_1630,013,256,20,5,lierni,Experiment_EEG_version,20,
Living_Things,../experiment_stimuli/bw_bc_bl/Living_Things/Birds/partridge_0.jpg,Birds,0,partridge,0,21,21,59,78.5234262261,V_nV,1,78.5290800135,79.7560072953,0,2,0.411116405623,80.1876778766,1,1,0.100438791094,5,6.0,32,bw,99.7814663773,2019_may_23_1630,013,256,20,5,lierni,Experiment_EEG_version,20,
Living_Things,../experiment_stimuli/bw_bc_bl/Living_Things/Marine_creatures/manatee_1.jpg,Marine_creatures,0,manatee,0,22,22,52,82.0210337441,nV_V,2,82.0258942647,83.2636315797,1,2,0.681711188052,83.9658814135,3,0,0.0802428657189,5,6.0,32,bw,99.7814663773,2019_may_23_1630,013,256,20,5,lierni,Experiment_EEG_version,20,
Living_Things,../experiment_stimuli/bw_bc_bl/Living_Things/Marine_creatures/crab_2.jpg,Marine_creatures,0,crab,0,23,23,21,85.7791923089,V_nV,1,85.7849953421,87.0117787542,1,1,0.330970064504,87.3733318918,1,1,0.200651833089,5,7.5,32,bw,99.7814663773,2019_may_23_1630,013,256,20,5,lierni,Experiment_EEG_version,20,
Living_Things,../experiment_stimuli/bw_bc_bl/Living_Things/Birds/seagull_14.jpg,Birds,0,seagull,0,24,24,74,89.3068689075,nV_V,2,89.3121147004,90.5494678821,0,1,0.511180017609,91.0812209321,1,1,0.230572434841,5,6.0,32,bw,99.7814663773,2019_may_23_1630,013,256,20,5,lierni,Experiment_EEG_version,20,
Nonliving_Things,../experiment_stimuli/bw_bc_bl/Nonliving_Things/Kitchen_Uten/coking-pot_15.jpg,Kitchen_Uten,0,coking-pot,0,25,25,18,93.0449906124,nV_V,1,93.0513681036,94.3176684158,1,1,0.461229311768,94.7994402605,2,0,0.0902619855478,5,7.5,32,bw,99.7814663773,2019_may_23_1630,013,256,20,5,lierni,Experiment_EEG_version,20,
Nonliving_Things,../experiment_stimuli/bw_bc_bl/Nonliving_Things/Furniture/wardrobe_8.jpg,Furniture,0,wardrobe,0,26,26,93,96.6227746289,V_nV,2,96.6275171509,97.8854142225,1,2,0.280933544505,98.196926408,2,0,0.130343306344,5,6.0,32,bw,99.7814663773,2019_may_23_1630,013,256,20,5,lierni,Experiment_EEG_version,20,
Living_Things,../experiment_stimuli/bw_bc_bl/Living_Things/Birds/rooster_23.jpg,Birds,0,rooster,0,27,27,70,100.060240023,nV_V,2,100.065170355,101.312872362,1,2,0.210697253235,101.544118922,1,1,0.0704454872757,5,7.5,32,bw,99.7814663773,2019_may_23_1630,013,256,20,5,lierni,Experiment_EEG_version,20,
Living_Things,../experiment_stimuli/bw_bc_bl/Living_Things/Animals/lioness_14.jpg,Animals,0,lioness,0,28,28,48,103.347387841,nV_V,2,103.353108225,104.620050994,0,1,0.220709143439,104.861322411,2,0,0.0703718008008,5,6.5,32,bw,99.7814663773,2019_may_23_1630,013,256,20,5,lierni,Experiment_EEG_version,20,
Nonliving_Things,../experiment_stimuli/bw_bc_bl/Nonliving_Things/Furniture/armchair_1.jpg,Furniture,0,armchair,0,29,29,2,106.664594172,nV_V,1,106.671215975,107.927244329,1,1,0.641621401533,108.589414654,2,0,0.0803937395103,5,6.0,32,bw,99.7814663773,2019_may_23_1630,013,256,20,5,lierni,Experiment_EEG_version,20,
Nonliving_Things,../experiment_stimuli/bw_bc_bl/Nonliving_Things/Musical_Inst/drum_6.jpg,Musical_Inst,0,drum,0,30,30,25,110.402726719,V_nV,2,110.407523518,111.655343791,1,2,0.381059317151,112.05695246,3,0,0.110464150785,5,6.5,32,bw,99.7814663773,2019_may_23_1630,013,256,20,5,lierni,Experiment_EEG_version,20,
Living_Things,../experiment_stimuli/bw_bc_bl/Living_Things/Animals/cat_1.jpg,Animals,0,cat,0,31,31,13,113.900328947,nV_V,2,113.906118887,115.132905957,0,1,0.300886867335,115.45435674,1,1,0.47123945062,5,6.5,32,bw,99.7814663773,2019_may_23_1630,013,256,20,5,lierni,Experiment_EEG_version,20,
Living_Things,../experiment_stimuli/bw_bc_bl/Living_Things/Animals/hippopotamus_3.jpg,Animals,0,hippopotamus,0,32,32,39,117.658503719,V_nV,1,117.663249286,118.911115738,0,2,0.631600112421,119.563281368,1,1,0.0904237991199,5,6.0,32,bw,99.7814663773,2019_may_23_1630,013,256,20,5,lierni,Experiment_EEG_version,20,
Nonliving_Things,../experiment_stimuli/bw_bc_bl/Nonliving_Things/Buildings/castle_10.jpg,Buildings,0,castle,0,33,33,12,121.386599481,nV_V,1,121.391352435,122.669287554,1,1,0.531228508335,123.22107378,2,0,0.0703988526948,5,7.0,32,bw,99.7814663773,2019_may_23_1630,013,256,20,5,lierni,Experiment_EEG_version,20,
Nonliving_Things,../experiment_stimuli/bw_bc_bl/Nonliving_Things/Vehicles/plane_5.jpg,Vehicles,0,plane,0,34,34,64,125.024503843,nV_V,1,125.029450783,126.297177353,1,1,0.441188350553,126.758908981,3,0,0.110458797542,5,7.5,32,bw,99.7814663773,2019_may_23_1630,013,256,20,5,lierni,Experiment_EEG_version,20,
Living_Things,../experiment_stimuli/bw_bc_bl/Living_Things/Animals/tiger_25.jpg,Animals,0,tiger,0,35,35,84,128.602289547,nV_V,2,128.608297168,129.844886364,1,2,0.571471289266,130.436911337,3,0,0.0301348541398,5,8.0,32,bw,99.7814663773,2019_may_23_1630,013,256,20,5,lierni,Experiment_EEG_version,20,
Nonliving_Things,../experiment_stimuli/bw_bc_bl/Nonliving_Things/Kitchen_Uten/fondue_26.jpg,Kitchen_Uten,0,fondue,0,36,36,30,132.200106265,V_nV,2,132.205093618,133.432684947,1,2,0.280836203601,133.734082184,1,1,0.090414667502,5,6.0,32,bw,99.7814663773,2019_may_23_1630,013,256,20,5,lierni,Experiment_EEG_version,20,
Living_Things,../experiment_stimuli/bw_bc_bl/Living_Things/Animals/lynx_25.jpg,Animals,0,lynx,0,37,37,50,135.557406285,nV_V,2,135.562323681,136.800010508,0,1,0.190643224632,137.011215649,2,0,0.170613688184,5,6.0,32,bw,99.7814663773,2019_may_23_1630,013,256,20,5,lierni,Experiment_EEG_version,20,
Nonliving_Things,../experiment_stimuli/bw_bc_bl/Nonliving_Things/Furniture/sofa_9.jpg,Furniture,0,sofa,0,38,38,78,138.914700752,V_nV,2,138.919609746,140.147296273,0,1,0.451203808887,140.619065061,2,0,0.170608372195,5,7.0,32,bw,99.7814663773,2019_may_23_1630,013,256,20,5,lierni,Experiment_EEG_version,20,
Living_Things,../experiment_stimuli/bw_bc_bl/Living_Things/Birds/sparrow_3.jpg,Birds,0,sparrow,0,39,39,79,142.522543455,nV_V,2,142.529381985,143.75513696,0,1,2.84641896072,146.622108893,2,0,0.20065814117,5,6.0,32,bw,99.7814663773,2019_may_23_1630,013,256,20,5,lierni,Experiment_EEG_version,20,
Nonliving_Things,../experiment_stimuli/bw_bc_bl/Nonliving_Things/Vehicles/tractor_13.jpg,Vehicles,0,tractor,0,40,40,86,148.555657638,nV_V,1,148.560798177,149.7882412,0,2,0.611558015924,150.420358564,1,1,0.120483383769,5,7.0,32,bw,99.7814663773,2019_may_23_1630,013,256,20,5,lierni,Experiment_EEG_version,20,
Nonliving_Things,../experiment_stimuli/bw_bc_bl/Nonliving_Things/Buildings/house_6.jpg,Buildings,0,house,0,41,41,41,152.273746641,nV_V,1,152.27978034,153.536389096,1,1,0.47125390498,154.028189977,2,0,0.0403059450909,5,7.0,32,bw,99.7814663773,2019_may_23_1630,013,256,20,5,lierni,Experiment_EEG_version,20,
Nonliving_Things,../experiment_stimuli/bw_bc_bl/Nonliving_Things/Tools/axe_19.jpg,Tools,0,axe,0,42,42,3,155.801411289,V_nV,2,155.806442961,157.054029064,0,1,0.0603534097318,157.134949984,3,0,0.0904166975524,5,6.5,32,bw,99.7814663773,2019_may_23_1630,013,256,20,5,lierni,Experiment_EEG_version,20,
Nonliving_Things,../experiment_stimuli/bw_bc_bl/Nonliving_Things/Furniture/filling-cabinet_23.jpg,Furniture,0,filling-cabinet,0,43,43,29,158.958285758,V_nV,2,158.963083392,160.190851549,1,2,0.270812854636,160.48224976,1,1,0.0603483312298,5,6.0,32,bw,99.7814663773,2019_may_23_1630,013,256,20,5,lierni,Experiment_EEG_version,20,
Nonliving_Things,../experiment_stimuli/bw_bc_bl/Nonliving_Things/Vehicles/van_12.jpg,Vehicles,0,van,0,44,44,91,162.275482548,nV_V,1,162.280327098,163.538128732,1,1,0.421139438404,163.979826489,3,0,0.0704566787463,5,7.5,32,bw,99.7814663773,2019_may_23_1630,013,256,20,5,lierni,Experiment_EEG_version,20,
Living_Things,../experiment_stimuli/bw_bc_bl/Living_Things/Birds/duck_1.jpg,Birds,0,duck,0,45,45,26,165.783110986,nV_V,2,165.788990251,167.025711649,0,1,0.340994056314,167.387262749,2,0,0.140525348485,5,7.5,32,bw,99.7814663773,2019_may_23_1630,013,256,20,5,lierni,Experiment_EEG_version,20,
Living_Things,../experiment_stimuli/bw_bc_bl/Living_Things/Birds/toucan_20.jpg,Birds,0,toucan,0,46,46,85,169.260668615,nV_V,2,169.266618176,170.493249887,1,2,0.250774807064,170.764597256,1,1,0.0603516243864,5,6.0,32,bw,99.7814663773,2019_may_23_1630,013,256,20,5,lierni,Experiment_EEG_version,20,
Living_Things,../experiment_stimuli/bw_bc_bl/Living_Things/Marine_creatures/narwhal_22.jpg,Marine_creatures,0,narwhal,0,47,47,55,172.557836101,V_nV,1,172.562732899,173.810459342,1,1,0.511337455129,174.342343172,3,0,0.0904224002734,5,7.5,32,bw,99.7814663773,2019_may_23_1630,013,256,20,5,lierni,Experiment_EEG_version,20,
Living_Things,../experiment_stimuli/bw_bc_bl/Living_Things/Birds/pelican_19.jpg,Birds,0,pelican,0,48,48,60,176.165678055,V_nV,1,176.170557196,177.398263361,1,1,0.260792370187,177.679615539,2,0,0.0503297864925,5,6.0,32,bw,99.7814663773,2019_may_23_1630,013,256,20,5,lierni,Experiment_EEG_version,20,
Living_Things,../experiment_stimuli/bw_bc_bl/Living_Things/Birds/pigeon_16.jpg,Birds,0,pigeon,0,49,49,63,179.462846177,nV_V,2,179.467792238,180.695427836,1,2,0.280836590799,180.996813749,2,0,0.150557189714,5,6.0,32,bw,99.7814663773,2019_may_23_1630,013,256,20,5,lierni,Experiment_EEG_version,20,
Living_Things,../experiment_stimuli/bw_bc_bl/Living_Things/Birds/penguin_17.jpg,Birds,0,penguin,0,50,50,61,182.8802807,V_nV,1,182.887376583,184.112867341,0,2,0.210698926356,184.344114683,1,1,0.0703674133401,5,6.0,32,bw,99.7814663773,2019_may_23_1630,013,256,20,5,lierni,Experiment_EEG_version,20,
Nonliving_Things,../experiment_stimuli/bw_bc_bl/Nonliving_Things/Tools/hammer_13.jpg,Tools,0,hammer,0,51,51,37,186.147378046,V_nV,2,186.152266573,187.38999381,0,1,0.210711640306,187.621311606,2,0,0.0603702517692,5,6.0,32,bw,99.7814663773,2019_may_23_1630,013,256,20,5,lierni,Experiment_EEG_version,20,
Nonliving_Things,../experiment_stimuli/bw_bc_bl/Nonliving_Things/Buildings/factory_11.jpg,Buildings,0,factory,0,52,52,28,189.414480726,nV_V,1,189.419447557,190.647057303,0,2,0.250773784472,190.918384684,1,1,0.0403082047123,5,6.0,32,bw,99.7814663773,2019_may_23_1630,013,256,20,5,lierni,Experiment_EEG_version,20,
Nonliving_Things,../experiment_stimuli/bw_bc_bl/Nonliving_Things/Furniture/lectern_3.jpg,Furniture,0,lectern,0,53,53,47,192.691614747,nV_V,1,192.698821012,193.93420515,0,2,0.0905110947788,194.045281428,2,0,0.791940605734,5,7.5,32,bw,99.7814663773,2019_may_23_1630,013,256,20,5,lierni,Experiment_EEG_version,20,
Living_Things,../experiment_stimuli/bw_bc_bl/Living_Things/Animals/turtle_5.jpg,Animals,0,turtle,0,54,54,90,196.570033488,nV_V,2,196.575111851,197.80261358,1,2,0.22070576041,198.043889177,1,1,0.0403059679084,5,6.5,32,bw,99.7814663773,2019_may_23_1630,013,256,20,5,lierni,Experiment_EEG_version,20,
Living_Things,../experiment_stimuli/bw_bc_bl/Living_Things/Birds/goose_11.jpg,Birds,0,goose,0,55,55,34,199.817099056,V_nV,1,199.82195446,201.059705542,0,2,0.210791391088,201.291032763,2,0,0.791946819983,5,6.0,32,bw,99.7814663773,2019_may_23_1630,013,256,20,5,lierni,Experiment_EEG_version,20,
Living_Things,../experiment_stimuli/bw_bc_bl/Living_Things/Animals/cow_8.jpg,Animals,0,cow,0,56,56,20,203.815794248,nV_V,2,203.821833823,205.048365445,1,2,0.53138841968,205.600306702,3,0,0.0904363738373,5,6.0,32,bw,99.7814663773,2019_may_23_1630,013,256,20,5,lierni,Experiment_EEG_version,20,
Nonliving_Things,../experiment_stimuli/bw_bc_bl/Nonliving_Things/Furniture/Chest-of-drawers_25.jpg,Furniture,0,Chest-of-drawers,0,57,57,0,207.423623608,nV_V,1,207.430806186,208.656212061,0,2,1.00240861764,209.679178418,1,1,0.110454839189,5,6.0,32,bw,99.7814663773,2019_may_23_1630,013,256,20,5,lierni,Experiment_EEG_version,20,
Living_Things,../experiment_stimuli/bw_bc_bl/Living_Things/Marine_creatures/sperm-whale_9.jpg,Marine_creatures,0,sperm-whale,0,58,58,80,211.522539127,V_nV,1,211.527455252,212.775164263,0,2,0.571462936001,213.367181089,3,0,0.140523889801,5,7.0,32,bw,99.7814663773,2019_may_23_1630,013,256,20,5,lierni,Experiment_EEG_version,20,
Nonliving_Things,../experiment_stimuli/bw_bc_bl/Nonliving_Things/Furniture/rocking-chair_22.jpg,Furniture,0,rocking-chair,0,59,59,69,215.240617601,nV_V,1,215.246776738,216.48323818,1,1,0.621417746879,217.125185547,2,0,0.0703892663587,5,6.5,32,bw,99.7814663773,2019_may_23_1630,013,256,20,5,lierni,Experiment_EEG_version,20,
Nonliving_Things,../experiment_stimuli/bw_bc_bl/Nonliving_Things/Musical_Inst/tuba_26.jpg,Musical_Inst,0,tuba,0,60,60,89,218.928638873,nV_V,1,218.935007514,220.161215765,1,1,0.471274055075,220.653043583,1,1,0.240770536708,5,6.5,32,bw,99.7814663773,2019_may_23_1630,013,256,20,5,lierni,Experiment_EEG_version,20,
Living_Things,../experiment_stimuli/bw_bc_bl/Living_Things/Marine_creatures/dolphin_13.jpg,Marine_creatures,0,dolphin,0,61,61,23,222.626675212,nV_V,2,222.631543138,223.879309739,1,2,0.561447515618,224.461317708,3,0,0.220729507972,5,6.0,32,bw,99.7814663773,2019_may_23_1630,013,256,20,5,lierni,Experiment_EEG_version,20,
Living_Things,../experiment_stimuli/bw_bc_bl/Living_Things/Animals/tapir_7.jpg,Animals,0,tapir,0,62,62,82,226.414911297,nV_V,2,226.419812362,227.647495103,0,1,0.361022724304,228.029060101,1,1,0.180612131488,5,7.0,32,bw,99.7814663773,2019_may_23_1630,013,256,20,5,lierni,Experiment_EEG_version,20,
Nonliving_Things,../experiment_stimuli/bw_bc_bl/Nonliving_Things/Furniture/couch_19.jpg,Furniture,0,couch,0,63,63,19,229.942583806,nV_V,1,229.947466649,231.19520428,1,1,0.421142021194,231.636891759,2,0,0.100442719413,5,6.0,32,bw,99.7814663773,2019_may_23_1630,013,256,20,5,lierni,Experiment_EEG_version,20,
Nonliving_Things,../experiment_stimuli/bw_bc_bl/Nonliving_Things/Furniture/bedside-table_2.jpg,Furniture,0,bedside-table,0,64,64,6,233.470247077,nV_V,1,233.476518134,234.712851879,1,1,0.49129392975,235.224692582,3,0,0.250762464944,5,6.0,32,bw,99.7814663773,2019_may_23_1630,013,256,20,5,lierni,Experiment_EEG_version,20,
Living_Things,../experiment_stimuli/bw_bc_bl/Living_Things/Insects/scorpion_25.jpg,Insects,0,scorpion,0,65,65,73,237.208381647,nV_V,2,237.213426544,238.450980328,1,2,0.621576500591,239.103123297,2,0,0.170588199748,5,6.0,32,bw,99.7814663773,2019_may_23_1630,013,256,20,5,lierni,Experiment_EEG_version,20,
Nonliving_Things,../experiment_stimuli/bw_bc_bl/Nonliving_Things/Buildings/mill_5.jpg,Buildings,0,mill,0,66,66,53,241.006629713,V_nV,2,241.012766666,242.249236221,1,2,0.501375203021,242.771163577,2,0,0.220729098422,5,6.5,32,bw,99.7814663773,2019_may_23_1630,013,256,20,5,lierni,Experiment_EEG_version,20,
Nonliving_Things,../experiment_stimuli/bw_bc_bl/Nonliving_Things/Kitchen_Uten/cup_23.jpg,Kitchen_Uten,0,cup,0,67,67,22,244.7247184,V_nV,2,244.729641788,245.967317623,1,2,0.30087911943,246.288752741,1,1,0.0904133329168,5,7.0,32,bw,99.7814663773,2019_may_23_1630,013,256,20,5,lierni,Experiment_EEG_version,20,
Nonliving_Things,../experiment_stimuli/bw_bc_bl/Nonliving_Things/Vehicles/bus_22.jpg,Vehicles,0,bus,0,68,68,9,248.112083331,nV_V,1,248.117059087,249.374726692,1,1,0.411122841295,249.806397356,3,0,0.120480409823,5,6.0,32,bw,99.7814663773,2019_may_23_1630,013,256,20,5,lierni,Experiment_EEG_version,20,
Nonliving_Things,../experiment_stimuli/bw_bc_bl/Nonliving_Things/Vehicles/ship_8.jpg,Vehicles,0,ship,0,69,69,76,251.659790286,nV_V,1,251.66471058,252.902399584,1,1,0.551427749218,253.474361539,3,0,0.160569910891,5,6.0,32,bw,99.7814663773,2019_may_23_1630,013,256,20,5,lierni,Experiment_EEG_version,20,
Nonliving_Things,../experiment_stimuli/bw_bc_bl/Nonliving_Things/Musical_Inst/piano__11.jpg,Musical_Inst,0,piano,0,70,70,62,255.367853395,V_nV,2,255.372900105,256.600431276,1,2,0.290857270593,256.91182943,1,1,0.0603485342581,5,7.0,32,bw,99.7814663773,2019_may_23_1630,013,256,20,5,lierni,Experiment_EEG_version,20,
Nonliving_Things,../experiment_stimuli/bw_bc_bl/Nonliving_Things/Vehicles/boat_6.jpg,Vehicles,0,boat,0,71,71,7,258.70513889,nV_V,1,258.710062443,259.977770787,1,1,0.421147814486,260.419466391,1,1,0.210679666838,5,6.0,32,bw,99.7814663773,2019_may_23_1630,013,256,20,5,lierni,Experiment_EEG_version,20,
Nonliving_Things,../experiment_stimuli/bw_bc_bl/Nonliving_Things/Kitchen_Uten/small-saucepan_25.jpg,Kitchen_Uten,0,small-saucepan,0,72,72,77,262.363064499,V_nV,2,262.368114062,263.645745027,1,2,0.611553008435,264.277849896,3,0,0.0703763980418,5,6.0,32,bw,99.7814663773,2019_may_23_1630,013,256,20,5,lierni,Experiment_EEG_version,20,
Living_Things,../experiment_stimuli/bw_bc_bl/Living_Things/Birds/hen_1.jpg,Birds,0,hen,0,73,73,38,266.081142325,V_nV,1,266.086152133,267.33376104,0,2,0.581487303833,267.93580308,1,1,0.130515890196,5,6.0,32,bw,99.7814663773,2019_may_23_1630,013,256,20,5,lierni,Experiment_EEG_version,20,
Living_Things,../experiment_stimuli/bw_bc_bl/Living_Things/Insects/butterfly_25.jpg,Insects,0,butterfly,0,74,74,10,269.799229122,V_nV,1,269.804272625,271.081914989,1,1,0.641640190268,271.744126102,3,0,0.100449471269,5,6.0,32,bw,99.7814663773,2019_may_23_1630,013,256,20,5,lierni,Experiment_EEG_version,20,
Living_Things,../experiment_stimuli/bw_bc_bl/Living_Things/Animals/armadillo_14.jpg,Animals,0,armadillo,0,75,75,1,273.577462166,V_nV,1,273.582627137,274.840082012,0,2,0.822013328783,275.682655956,2,0,0.240741879446,5,6.0,32,bw,99.7814663773,2019_may_23_1630,013,256,20,5,lierni,Experiment_EEG_version,20,
Living_Things,../experiment_stimuli/bw_bc_bl/Living_Things/Birds/owl_4.jpg,Birds,0,owl,0,76,76,57,277.656297461,V_nV,1,277.662877923,278.898902124,0,2,0.431161768967,279.350626158,3,0,0.110456553288,5,7.5,32,bw,99.7814663773,2019_may_23_1630,013,256,20,5,lierni,Experiment_EEG_version,20,
Living_Things,../experiment_stimuli/bw_bc_bl/Living_Things/Animals/horse_11.jpg,Animals,0,horse,0,77,77,40,281.193994898,V_nV,1,281.199253277,282.426572193,0,2,0.0803994727321,282.527527893,1,1,0.150572418934,5,6.5,32,bw,99.7814663773,2019_may_23_1630,013,256,20,5,lierni,Experiment_EEG_version,20,
Living_Things,../experiment_stimuli/bw_bc_bl/Living_Things/Marine_creatures/killer-whale_4.jpg,Marine_creatures,0,killer-whale,0,78,78,43,284.410993374,nV_V,2,284.416175837,285.653587838,0,1,0.250767231686,285.924916956,2,0,0.0202627473045,5,8.0,32,bw,99.7814663773,2019_may_23_1630,013,256,20,5,lierni,Experiment_EEG_version,20,
Living_Things,../experiment_stimuli/bw_bc_bl/Living_Things/Birds/magpie_9.jpg,Birds,0,magpie,0,79,79,51,287.678084855,nV_V,2,287.683488003,288.920690255,0,1,0.290871744044,289.232119264,1,1,0.130498544546,5,6.5,32,bw,99.7814663773,2019_may_23_1630,013,256,20,5,lierni,Experiment_EEG_version,20,
Living_Things,../experiment_stimuli/bw_bc_bl/Living_Things/Marine_creatures/lobster_15.jpg,Marine_creatures,0,lobster,0,80,80,49,291.095515168,V_nV,1,291.100777476,292.348142815,1,1,0.581505596638,292.950206392,3,0,0.0508473203517,5,6.5,32,bw,99.7814663773,2019_may_23_1630,013,256,20,5,lierni,Experiment_EEG_version,20,
Living_Things,../experiment_stimuli/bw_bc_bl/Living_Things/Animals/giraffe_6.jpg,Animals,0,giraffe,0,81,81,32,294.733429485,nV_V,2,294.740199734,295.966006058,0,1,0.330952797784,296.317512945,2,0,0.0603476543911,5,6.5,32,bw,99.7814663773,2019_may_23_1630,013,256,20,5,lierni,Experiment_EEG_version,20,
Nonliving_Things,../experiment_stimuli/bw_bc_bl/Nonliving_Things/Buildings/cathedral_0.jpg,Buildings,0,cathedral,0,82,82,14,298.110763744,nV_V,1,298.115958906,299.353374121,0,2,0.270816072822,299.644741738,1,1,0.0603695078753,5,7.5,32,bw,99.7814663773,2019_may_23_1630,013,256,20,5,lierni,Experiment_EEG_version,20,
Living_Things,../experiment_stimuli/bw_bc_bl/Living_Things/Birds/hummingbird_6.jpg,Birds,0,hummingbird,0,83,83,42,301.438025081,nV_V,2,301.444896404,302.680658484,1,2,0.280677111587,302.981825769,2,0,0.1505458022,5,6.5,32,bw,99.7814663773,2019_may_23_1630,013,256,20,5,lierni,Experiment_EEG_version,20,
Living_Things,../experiment_stimuli/bw_bc_bl/Living_Things/Marine_creatures/shark_0.jpg,Marine_creatures,0,shark,0,84,84,75,304.865455898,nV_V,2,304.870734115,306.09803105,1,2,0.160417097155,306.279000951,1,1,0.110469395528,5,6.0,32,bw,99.7814663773,2019_may_23_1630,013,256,20,5,lierni,Experiment_EEG_version,20,
Nonliving_Things,../experiment_stimuli/bw_bc_bl/Nonliving_Things/Furniture/bookcase_23.jpg,Furniture,0,bookcase,0,85,85,8,308.122530229,nV_V,1,308.127759105,309.385178481,1,1,0.511335063959,309.917056754,2,0,0.120482808445,5,6.0,32,bw,99.7814663773,2019_may_23_1630,013,256,20,5,lierni,Experiment_EEG_version,20,
Nonliving_Things,../experiment_stimuli/bw_bc_bl/Nonliving_Things/Furniture/lamp_24.jpg,Furniture,0,lamp,0,86,86,46,311.770460087,V_nV,2,311.775644602,313.033109071,1,2,0.381049276097,313.434718255,3,0,0.12049582717,5,7.5,32,bw,99.7814663773,2019_may_23_1630,013,256,20,5,lierni,Experiment_EEG_version,20,
Nonliving_Things,../experiment_stimuli/bw_bc_bl/Nonliving_Things/Kitchen_Uten/frying-pan_26.jpg,Kitchen_Uten,0,frying-pan,0,87,87,31,315.288104641,nV_V,1,315.29349403,316.520690992,0,2,0.621577402577,317.162812266,1,1,0.711768291192,5,7.0,32,bw,99.7814663773,2019_may_23_1630,013,256,20,5,lierni,Experiment_EEG_version,20,
Nonliving_Things,../experiment_stimuli/bw_bc_bl/Nonliving_Things/Buildings/granary_24.jpg,Buildings,0,granary,0,88,88,35,319.607502337,V_nV,2,319.612944808,320.870150844,1,2,0.601552550215,321.492247788,2,0,0.170587545494,5,6.0,32,bw,99.7814663773,2019_may_23_1630,013,256,20,5,lierni,Experiment_EEG_version,20,
Nonliving_Things,../experiment_stimuli/bw_bc_bl/Nonliving_Things/Kitchen_Uten/pot_14.jpg,Kitchen_Uten,0,pot,0,89,89,66,323.395733603,nV_V,1,323.40113748,324.648355212,1,1,0.451204861281,325.120111967,3,0,0.090418686159,5,6.5,32,bw,99.7814663773,2019_may_23_1630,013,256,20,5,lierni,Experiment_EEG_version,20,
Nonliving_Things,../experiment_stimuli/bw_bc_bl/Nonliving_Things/Furniture/chair_10.jpg,Furniture,0,chair,0,90,90,15,326.943447361,nV_V,1,326.949006004,328.176026303,1,1,0.0302949119359,328.226891293,2,0,0.0603508199565,5,6.0,32,bw,99.7814663773,2019_may_23_1630,013,256,20,5,lierni,Experiment_EEG_version,20,
Nonliving_Things,../experiment_stimuli/bw_bc_bl/Nonliving_Things/Vehicles/motorbike_8.jpg,Vehicles,0,motorbike,0,91,91,54,330.020136118,nV_V,1,330.025746684,331.252716327,0,2,0.160578862065,331.433889055,1,1,0.0503871880937,5,7.5,32,bw,99.7814663773,2019_may_23_1630,013,256,20,5,lierni,Experiment_EEG_version,20,
Nonliving_Things,../experiment_stimuli/bw_bc_bl/Nonliving_Things/Musical_Inst/violin_24.jpg,Musical_Inst,0,violin,0,92,92,92,333.217088735,nV_V,1,333.222721117,334.479736009,1,1,0.902192590525,335.40248517,3,0,0.16057383921,5,6.0,32,bw,99.7814663773,2019_may_23_1630,013,256,20,5,lierni,Experiment_EEG_version,20,
Nonliving_Things,../experiment_stimuli/bw_bc_bl/Nonliving_Things/Buildings/church_15.jpg,Buildings,0,church,0,93,93,17,337.295947809,nV_V,1,337.301498499,338.528535968,1,1,0.691733988002,339.240838398,1,1,0.290851191385,5,6.0,32,bw,99.7814663773,2019_may_23_1630,013,256,20,5,lierni,Experiment_EEG_version,20,
Nonliving_Things,../experiment_stimuli/bw_bc_bl/Nonliving_Things/Buildings/palace_25.jpg,Buildings,0,palace,0,94,94,58,341.264578265,V_nV,2,341.270301465,342.527235005,1,2,0.370871147374,342.918678707,1,1,0.0202664425597,5,6.0,32,bw,99.7814663773,2019_may_23_1630,013,256,20,5,lierni,Experiment_EEG_version,20,
Living_Things,../experiment_stimuli/bw_bc_bl/Living_Things/Marine_creatures/pomfret_23.jpg,Marine_creatures,0,pomfret,0,95,95,65,344.671998717,V_nV,1,344.677566792,345.944658841,1,1,0.591513558757,346.556715222,3,0,0.0703929017764,5,6.0,32,bw,99.7814663773,2019_may_23_1630,013,256,20,5,lierni,Experiment_EEG_version,20,
