category,probe_path,subcategory,fixation_duration,label,trials.thisRepN,trials.thisTrialN,trials.thisN,trials.thisIndex,image_onset_time,response_window,correctAns,probe_onset,discrim_resptime,response.corr,response.keys,response.rt,visible_resptime,visible.keys,visible.corr,visible.rt,probeFrames,jitter2,n_square,experiment_color,frameRate,date,session,image_size,premask_dur,probeFrames,participant,expName,postmask_dur,
Nonliving_Things,../experiment_stimuli/bw_bc_bl/Nonliving_Things/Kitchen_Uten/fondue_7.jpg,Kitchen_Uten,0,fondue,0,0,0,30,3.71442885243,V_nV,2,3.73496507353,4.99712375307,1,2,0.40114877373,5.42912068288,3,0,0.110472853994,5,6.5,32,bw,99.783319302,2019_may_20_1038,008,256,20,5,Lierni,Experiment_EEG_version,20,
Living_Things,../experiment_stimuli/bw_bc_bl/Living_Things/Animals/tapir_5.jpg,Animals,0,tapir,0,1,1,82,7.27215411095,nV_V,2,7.27706224401,8.51476598799,0,1,0.270826414577,8.80614640506,2,0,0.0904139983468,5,6.5,32,bw,99.783319302,2019_may_20_1038,008,256,20,5,Lierni,Experiment_EEG_version,20,
Living_Things,../experiment_stimuli/bw_bc_bl/Living_Things/Animals/armadillo_18.jpg,Animals,0,armadillo,0,2,2,1,10.6294587099,V_nV,1,10.6343208207,11.8620351439,0,2,0.531376581755,12.4139720212,1,1,0.0904144004453,5,6.5,32,bw,99.783319302,2019_may_20_1038,008,256,20,5,Lierni,Experiment_EEG_version,20,
Living_Things,../experiment_stimuli/bw_bc_bl/Living_Things/Marine_creatures/sperm-whale_24.jpg,Marine_creatures,0,sperm-whale,0,3,3,80,14.2372985249,nV_V,2,14.2421990075,15.4899204391,1,2,0.731809759978,16.2422917503,2,0,0.391065256554,5,6.5,32,bw,99.783319302,2019_may_20_1038,008,256,20,5,Lierni,Experiment_EEG_version,20,
Living_Things,../experiment_stimuli/bw_bc_bl/Living_Things/Animals/cat_18.jpg,Animals,0,cat,0,4,4,13,18.3662763356,nV_V,2,18.3712297457,19.6088746184,0,1,0.300881585688,19.9303240147,2,0,0.110462286626,5,6.0,32,bw,99.783319302,2019_may_20_1038,008,256,20,5,Lierni,Experiment_EEG_version,20,
Living_Things,../experiment_stimuli/bw_bc_bl/Living_Things/Marine_creatures/crab_21.jpg,Marine_creatures,0,crab,0,5,5,21,21.7736833368,nV_V,2,21.7786146987,23.006257692,1,2,0.481271024677,23.5080777458,2,0,0.190655310638,5,6.0,32,bw,99.783319302,2019_may_20_1038,008,256,20,5,Lierni,Experiment_EEG_version,20,
Living_Things,../experiment_stimuli/bw_bc_bl/Living_Things/Marine_creatures/killer-whale_0.jpg,Marine_creatures,0,killer-whale,0,6,6,43,25.4316268594,V_nV,1,25.4364593694,26.6642137896,0,2,0.0303044944303,26.7150674975,2,0,0.240745901945,5,6.0,32,bw,99.783319302,2019_may_20_1038,008,256,20,5,Lierni,Experiment_EEG_version,20,
Nonliving_Things,../experiment_stimuli/bw_bc_bl/Nonliving_Things/Furniture/sofa_16.jpg,Furniture,0,sofa,0,7,7,78,28.6887138069,nV_V,1,28.6935642526,29.9212904101,1,1,0.471251374809,30.4130977391,2,0,0.090434971964,5,6.5,32,bw,99.783319302,2019_may_20_1038,008,256,20,5,Lierni,Experiment_EEG_version,20,
Living_Things,../experiment_stimuli/bw_bc_bl/Living_Things/Marine_creatures/shark_1.jpg,Marine_creatures,0,shark,0,8,8,75,32.2364483101,nV_V,2,32.2423928039,33.4690051654,1,2,0.38105562178,33.8706444398,2,0,0.250618155114,5,6.0,32,bw,99.783319302,2019_may_20_1038,008,256,20,5,Lierni,Experiment_EEG_version,20,
Living_Things,../experiment_stimuli/bw_bc_bl/Living_Things/Birds/owl_18.jpg,Birds,0,owl,0,9,9,57,35.8542930871,V_nV,1,35.859757509,37.0868700137,0,2,0.250774570042,37.3582101879,1,1,0.0503322153818,5,6.5,32,bw,99.783319302,2019_may_20_1038,008,256,20,5,Lierni,Experiment_EEG_version,20,
Living_Things,../experiment_stimuli/bw_bc_bl/Living_Things/Birds/barn-owl_5.jpg,Birds,0,barn-owl,0,10,10,4,39.1414411946,nV_V,2,39.1462996702,40.3940612852,1,2,0.531383859576,40.9459988844,2,0,0.230721000116,5,7.0,32,bw,99.783319302,2019_may_20_1038,008,256,20,5,Lierni,Experiment_EEG_version,20,
Nonliving_Things,../experiment_stimuli/bw_bc_bl/Nonliving_Things/Furniture/lamp_5.jpg,Furniture,0,lamp,0,11,11,46,42.9096240741,nV_V,1,42.9145381355,44.1522355302,0,2,0.31089819409,44.4837053996,1,1,0.0902625344461,5,6.0,32,bw,99.783319302,2019_may_20_1038,008,256,20,5,Lierni,Experiment_EEG_version,20,
Nonliving_Things,../experiment_stimuli/bw_bc_bl/Nonliving_Things/Furniture/table_22.jpg,Furniture,0,table,0,12,12,81,46.3070135989,nV_V,1,46.3119517351,47.5696558582,1,1,0.481277453247,48.0714801184,2,0,0.0802397041116,5,6.0,32,bw,99.783319302,2019_may_20_1038,008,256,20,5,Lierni,Experiment_EEG_version,20,
Nonliving_Things,../experiment_stimuli/bw_bc_bl/Nonliving_Things/Musical_Inst/guitar_0.jpg,Musical_Inst,0,guitar,0,13,13,36,49.8847882694,V_nV,2,49.8895962345,51.1374136608,1,2,0.521366209956,51.6793360125,3,0,0.140528787975,5,6.0,32,bw,99.783319302,2019_may_20_1038,008,256,20,5,Lierni,Experiment_EEG_version,20,
Living_Things,../experiment_stimuli/bw_bc_bl/Living_Things/Animals/lioness_12.jpg,Animals,0,lioness,0,14,14,48,53.5527605655,nV_V,2,53.5580340318,54.7853434284,1,2,0.310900968499,55.1168081098,1,1,0.0904364717426,5,6.0,32,bw,99.783319302,2019_may_20_1038,008,256,20,5,Lierni,Experiment_EEG_version,20,
Living_Things,../experiment_stimuli/bw_bc_bl/Living_Things/Insects/ladybird_17.jpg,Insects,0,ladybird,0,15,15,45,56.9401253917,nV_V,2,56.9462318384,58.2027682376,0,1,0.240762363886,58.4640956152,1,1,0.190635841223,5,6.0,32,bw,99.783319302,2019_may_20_1038,008,256,20,5,Lierni,Experiment_EEG_version,20,
Nonliving_Things,../experiment_stimuli/bw_bc_bl/Nonliving_Things/Tools/hammer_21.jpg,Tools,0,hammer,0,16,16,37,60.3876361575,V_nV,2,60.3925618201,61.6602968257,1,2,0.471249998896,62.1520826397,1,1,0.0904236714123,5,6.0,32,bw,99.783319302,2019_may_20_1038,008,256,20,5,Lierni,Experiment_EEG_version,20,
Nonliving_Things,../experiment_stimuli/bw_bc_bl/Nonliving_Things/Buildings/castle_26.jpg,Buildings,0,castle,0,17,17,12,63.9754225077,nV_V,1,63.9803287196,65.2781556215,1,1,0.511357153882,65.8100949432,2,0,0.0602001418592,5,6.0,32,bw,99.783319302,2019_may_20_1038,008,256,20,5,Lierni,Experiment_EEG_version,20,
Living_Things,../experiment_stimuli/bw_bc_bl/Living_Things/Animals/giraffe_12.jpg,Animals,0,giraffe,0,18,18,32,67.6033024383,V_nV,1,67.6082173943,68.896018293,1,1,0.651649351581,69.5682198164,3,0,0.0603667409159,5,6.5,32,bw,99.783319302,2019_may_20_1038,008,256,20,5,Lierni,Experiment_EEG_version,20,
Nonliving_Things,../experiment_stimuli/bw_bc_bl/Nonliving_Things/Furniture/bed_15.jpg,Furniture,0,bed,0,19,19,5,71.3614758826,nV_V,1,71.3663248507,72.624121743,1,1,0.501392108621,73.1460829821,3,0,0.0904338025721,5,6.0,32,bw,99.783319302,2019_may_20_1038,008,256,20,5,Lierni,Experiment_EEG_version,20,
Living_Things,../experiment_stimuli/bw_bc_bl/Living_Things/Birds/kiwi_26.jpg,Birds,0,kiwi,0,20,20,44,74.9693264719,nV_V,2,74.9742406575,76.2019085112,0,1,0.260634909966,76.483081165,2,0,0.100441527902,5,6.5,32,bw,99.783319302,2019_may_20_1038,008,256,20,5,Lierni,Experiment_EEG_version,20,
Living_Things,../experiment_stimuli/bw_bc_bl/Living_Things/Marine_creatures/manatee_23.jpg,Marine_creatures,0,manatee,0,21,21,52,78.3166042782,V_nV,1,78.3222037923,79.5491732048,0,2,0.240766236093,79.810520684,1,1,0.0403098888928,5,6.5,32,bw,99.783319302,2019_may_20_1038,008,256,20,5,Lierni,Experiment_EEG_version,20,
Nonliving_Things,../experiment_stimuli/bw_bc_bl/Nonliving_Things/Furniture/filling-cabinet_10.jpg,Furniture,0,filling-cabinet,0,22,22,29,81.5836980863,nV_V,1,81.5893898769,82.8363177034,1,1,0.260794528178,83.11766564,2,0,0.170606598142,5,7.0,32,bw,99.783319302,2019_may_20_1038,008,256,20,5,Lierni,Experiment_EEG_version,20,
Nonliving_Things,../experiment_stimuli/bw_bc_bl/Nonliving_Things/Furniture/bookcase_5.jpg,Furniture,0,bookcase,0,23,23,8,85.0211717248,V_nV,2,85.0261960477,86.2637825678,0,1,0.24075191305,86.5250715851,1,1,0.210676535266,5,7.5,32,bw,99.783319302,2019_may_20_1038,008,256,20,5,Lierni,Experiment_EEG_version,20,
Nonliving_Things,../experiment_stimuli/bw_bc_bl/Nonliving_Things/Furniture/rocking-chair_3.jpg,Furniture,0,rocking-chair,0,24,24,69,88.4686634081,nV_V,1,88.4745919736,89.7313091821,1,1,0.441183952265,90.1930524677,3,0,0.120474718278,5,6.0,32,bw,99.783319302,2019_may_20_1038,008,256,20,5,Lierni,Experiment_EEG_version,20,
Nonliving_Things,../experiment_stimuli/bw_bc_bl/Nonliving_Things/Vehicles/plane_19.jpg,Vehicles,0,plane,0,25,25,64,92.0464420033,V_nV,2,92.0513605118,93.2790218698,0,1,0.350989037426,93.6505809695,2,0,0.120482928585,5,6.0,32,bw,99.783319302,2019_may_20_1038,008,256,20,5,Lierni,Experiment_EEG_version,20,
Nonliving_Things,../experiment_stimuli/bw_bc_bl/Nonliving_Things/Musical_Inst/violin_19.jpg,Musical_Inst,0,violin,0,26,26,92,95.5039553774,V_nV,2,95.5088479352,96.7365395182,1,2,0.661678531324,97.4287798825,1,1,0.0904337799875,5,6.5,32,bw,99.783319302,2019_may_20_1038,008,256,20,5,Lierni,Experiment_EEG_version,20,
Nonliving_Things,../experiment_stimuli/bw_bc_bl/Nonliving_Things/Vehicles/ship_0.jpg,Vehicles,0,ship,0,27,27,76,99.2521078073,V_nV,2,99.2569641703,100.504729108,1,2,0.371031051036,100.896316373,1,1,0.0603523575701,5,6.0,32,bw,99.783319302,2019_may_20_1038,008,256,20,5,Lierni,Experiment_EEG_version,20,
Living_Things,../experiment_stimuli/bw_bc_bl/Living_Things/Marine_creatures/lobster_5.jpg,Marine_creatures,0,lobster,0,28,28,49,102.689584149,nV_V,2,102.695421633,103.952226227,1,2,0.54124409426,104.514007456,3,0,0.100441035233,5,6.0,32,bw,99.783319302,2019_may_20_1038,008,256,20,5,Lierni,Experiment_EEG_version,20,
Living_Things,../experiment_stimuli/bw_bc_bl/Living_Things/Birds/goldfinch_11.jpg,Birds,0,goldfinch,0,29,29,33,106.347531472,V_nV,1,106.353374723,107.580110639,1,1,0.0503292341018,107.650986117,1,1,0.240749195218,5,7.5,32,bw,99.783319302,2019_may_20_1038,008,256,20,5,Lierni,Experiment_EEG_version,20,
Living_Things,../experiment_stimuli/bw_bc_bl/Living_Things/Birds/rooster_26.jpg,Birds,0,rooster,0,30,30,70,109.62465246,nV_V,2,109.629512454,110.877290215,1,2,0.48138943268,111.379214437,3,0,0.130349588231,5,6.5,32,bw,99.783319302,2019_may_20_1038,008,256,20,5,Lierni,Experiment_EEG_version,20,
Nonliving_Things,../experiment_stimuli/bw_bc_bl/Nonliving_Things/Tools/axe_15.jpg,Tools,0,axe,0,31,31,3,113.242518041,V_nV,2,113.248338853,114.47509752,1,2,0.321103818715,114.816755202,1,1,0.0603581580799,5,6.0,32,bw,99.783319302,2019_may_20_1038,008,256,20,5,Lierni,Experiment_EEG_version,20,
Living_Things,../experiment_stimuli/bw_bc_bl/Living_Things/Marine_creatures/whale_8.jpg,Marine_creatures,0,whale,0,32,32,94,116.60985768,V_nV,1,116.615545404,117.862470399,1,1,0.32093478716,118.213972944,3,0,0.130600088043,5,8.0,32,bw,99.783319302,2019_may_20_1038,008,256,20,5,Lierni,Experiment_EEG_version,20,
Living_Things,../experiment_stimuli/bw_bc_bl/Living_Things/Insects/butterfly_11.jpg,Insects,0,butterfly,0,33,33,10,120.077383343,V_nV,1,120.083246316,121.30996192,0,2,0.300883641816,121.631399294,1,1,0.0302762617357,5,6.0,32,bw,99.783319302,2019_may_20_1038,008,256,20,5,Lierni,Experiment_EEG_version,20,
Nonliving_Things,../experiment_stimuli/bw_bc_bl/Nonliving_Things/Furniture/bedside-table_18.jpg,Furniture,0,bedside-table,0,34,34,6,123.394591667,V_nV,2,123.400444357,124.637197585,1,2,0.230576960952,124.888343556,1,1,0.0503333131783,5,7.5,32,bw,99.783319302,2019_may_20_1038,008,256,20,5,Lierni,Experiment_EEG_version,20,
Nonliving_Things,../experiment_stimuli/bw_bc_bl/Nonliving_Things/Kitchen_Uten/pot_25.jpg,Kitchen_Uten,0,pot,0,35,35,66,126.671716553,V_nV,2,126.677585657,127.944383981,1,2,0.34098689456,128.305928002,3,0,0.150546242483,5,6.5,32,bw,99.783319302,2019_may_20_1038,008,256,20,5,Lierni,Experiment_EEG_version,20,
Living_Things,../experiment_stimuli/bw_bc_bl/Living_Things/Birds/pelican_22.jpg,Birds,0,pelican,0,36,36,60,130.189360949,V_nV,1,130.194277033,131.43197898,0,2,0.340975364903,131.793507287,2,0,0.180626165005,5,6.0,32,bw,99.783319302,2019_may_20_1038,008,256,20,5,Lierni,Experiment_EEG_version,20,
Living_Things,../experiment_stimuli/bw_bc_bl/Living_Things/Animals/horse_3.jpg,Animals,0,horse,0,37,37,40,133.707008222,nV_V,2,133.711965124,134.939600524,1,2,0.130513743847,135.090661349,1,1,0.0202600256307,5,7.5,32,bw,99.783319302,2019_may_20_1038,008,256,20,5,Lierni,Experiment_EEG_version,20,
Nonliving_Things,../experiment_stimuli/bw_bc_bl/Nonliving_Things/Buildings/palace_16.jpg,Buildings,0,palace,0,38,38,58,136.84383794,V_nV,2,136.849841005,138.086431242,0,1,0.320924576721,138.427920765,2,0,0.0603437337559,5,6.5,32,bw,99.783319302,2019_may_20_1038,008,256,20,5,Lierni,Experiment_EEG_version,20,
Nonliving_Things,../experiment_stimuli/bw_bc_bl/Nonliving_Things/Vehicles/bus_15.jpg,Vehicles,0,bus,0,39,39,9,140.221173504,V_nV,2,140.226109862,141.453791663,1,2,0.531383637805,142.005688492,3,0,0.120482466067,5,6.5,32,bw,99.783319302,2019_may_20_1038,008,256,20,5,Lierni,Experiment_EEG_version,20,
Nonliving_Things,../experiment_stimuli/bw_bc_bl/Nonliving_Things/Furniture/Chest-of-drawers_16.jpg,Furniture,0,Chest-of-drawers,0,40,40,0,143.859078866,V_nV,2,143.863847493,145.091662999,1,2,0.441204353934,145.553415454,1,1,0.170597278629,5,6.0,32,bw,99.783319302,2019_may_20_1038,008,256,20,5,Lierni,Experiment_EEG_version,20,
Living_Things,../experiment_stimuli/bw_bc_bl/Living_Things/Animals/rhino_4.jpg,Animals,0,rhino,0,41,41,68,147.456904441,V_nV,1,147.461861765,148.719555911,1,1,0.471247645561,149.211347462,3,0,0.120484924759,5,6.5,32,bw,99.783319302,2019_may_20_1038,008,256,20,5,Lierni,Experiment_EEG_version,20,
Nonliving_Things,../experiment_stimuli/bw_bc_bl/Nonliving_Things/Musical_Inst/saxophone_16.jpg,Musical_Inst,0,saxophone,0,42,42,72,151.064749121,V_nV,2,151.069832191,152.297333503,0,1,0.300880525494,152.618773504,2,0,0.120485913474,5,6.5,32,bw,99.783319302,2019_may_20_1038,008,256,20,5,Lierni,Experiment_EEG_version,20,
Living_Things,../experiment_stimuli/bw_bc_bl/Living_Things/Birds/toucan_5.jpg,Birds,0,toucan,0,43,43,85,154.472152649,nV_V,2,154.477130194,155.704735967,1,2,0.230751266703,155.956040281,1,1,0.0804060625378,5,6.0,32,bw,99.783319302,2019_may_20_1038,008,256,20,5,Lierni,Experiment_EEG_version,20,
Living_Things,../experiment_stimuli/bw_bc_bl/Living_Things/Birds/hummingbird_23.jpg,Birds,0,hummingbird,0,44,44,42,157.769319748,V_nV,1,157.774198318,159.011934332,1,1,0.381053196965,159.413526614,1,1,0.200655742898,5,6.5,32,bw,99.783319302,2019_may_20_1038,008,256,20,5,Lierni,Experiment_EEG_version,20,
Nonliving_Things,../experiment_stimuli/bw_bc_bl/Nonliving_Things/Buildings/cathedral_2.jpg,Buildings,0,cathedral,0,45,45,14,161.34709634,V_nV,2,161.35201063,162.599722208,1,2,0.391078109504,163.011356088,2,0,0.40109765809,5,6.0,32,bw,99.783319302,2019_may_20_1038,008,256,20,5,Lierni,Experiment_EEG_version,20,
Living_Things,../experiment_stimuli/bw_bc_bl/Living_Things/Animals/hippopotamus_25.jpg,Animals,0,hippopotamus,0,46,46,39,165.145357928,nV_V,2,165.151331072,166.387962301,1,2,0.491300760885,166.899821546,2,0,0.180626717512,5,6.0,32,bw,99.783319302,2019_may_20_1038,008,256,20,5,Lierni,Experiment_EEG_version,20,
Nonliving_Things,../experiment_stimuli/bw_bc_bl/Nonliving_Things/Vehicles/train_1.jpg,Vehicles,0,train,0,47,47,87,168.813335032,V_nV,2,168.820427085,170.04592144,1,2,0.320771526312,170.38725439,1,1,0.0503467411036,5,6.0,32,bw,99.783319302,2019_may_20_1038,008,256,20,5,Lierni,Experiment_EEG_version,20,
Nonliving_Things,../experiment_stimuli/bw_bc_bl/Nonliving_Things/Furniture/couch_20.jpg,Furniture,0,couch,0,48,48,19,172.170630169,nV_V,1,172.175407645,173.423260316,0,2,0.671686346759,174.115505097,2,0,0.150544911623,5,6.5,32,bw,99.783319302,2019_may_20_1038,008,256,20,5,Lierni,Experiment_EEG_version,20,
Living_Things,../experiment_stimuli/bw_bc_bl/Living_Things/Birds/hen_24.jpg,Birds,0,hen,0,49,49,38,175.998958458,V_nV,1,176.003821178,177.241552801,1,1,0.260799888987,177.522921798,2,0,0.140525728231,5,6.5,32,bw,99.783319302,2019_may_20_1038,008,256,20,5,Lierni,Experiment_EEG_version,20,
Living_Things,../experiment_stimuli/bw_bc_bl/Living_Things/Birds/ostrich_15.jpg,Birds,0,ostrich,0,50,50,56,179.39633987,nV_V,2,179.401321588,180.628917056,1,2,0.0904237765353,180.739880455,1,1,0.180618251441,5,6.0,32,bw,99.783319302,2019_may_20_1038,008,256,20,5,Lierni,Experiment_EEG_version,20,
Nonliving_Things,../experiment_stimuli/bw_bc_bl/Nonliving_Things/Musical_Inst/trumpet_23.jpg,Musical_Inst,0,trumpet,0,51,51,88,182.653426509,V_nV,2,182.658413769,183.896020052,1,2,0.932256016997,184.848849917,2,0,0.290852872073,5,7.5,32,bw,99.783319302,2019_may_20_1038,008,256,20,5,Lierni,Experiment_EEG_version,20,
Nonliving_Things,../experiment_stimuli/bw_bc_bl/Nonliving_Things/Vehicles/tractor_8.jpg,Vehicles,0,tractor,0,52,52,86,186.872590088,nV_V,1,186.877424158,188.105169541,1,1,0.260635263752,188.386381912,2,0,0.0503505270462,5,6.5,32,bw,99.783319302,2019_may_20_1038,008,256,20,5,Lierni,Experiment_EEG_version,20,
Nonliving_Things,../experiment_stimuli/bw_bc_bl/Nonliving_Things/Furniture/chair_13.jpg,Furniture,0,chair,0,53,53,15,190.169781766,V_nV,2,190.174749048,191.402342061,0,1,0.100451155333,191.523338494,1,1,0.150540626026,5,7.0,32,bw,99.783319302,2019_may_20_1038,008,256,20,5,Lierni,Experiment_EEG_version,20,
Nonliving_Things,../experiment_stimuli/bw_bc_bl/Nonliving_Things/Kitchen_Uten/coking-pot_10.jpg,Kitchen_Uten,0,coking-pot,0,54,54,18,193.406795625,V_nV,2,193.411690837,194.649408035,1,2,0.541420809925,195.21137613,2,0,0.310908028623,5,6.5,32,bw,99.783319302,2019_may_20_1038,008,256,20,5,Lierni,Experiment_EEG_version,20,
Nonliving_Things,../experiment_stimuli/bw_bc_bl/Nonliving_Things/Musical_Inst/tuba_18.jpg,Musical_Inst,0,tuba,0,55,55,89,197.255163995,nV_V,1,197.260085515,198.497763045,1,1,0.551423350931,199.069733895,3,0,0.0603688948322,5,6.0,32,bw,99.783319302,2019_may_20_1038,008,256,20,5,Lierni,Experiment_EEG_version,20,
Nonliving_Things,../experiment_stimuli/bw_bc_bl/Nonliving_Things/Furniture/wardrobe_26.jpg,Furniture,0,wardrobe,0,56,56,93,200.863010089,nV_V,1,200.867804776,202.095588936,1,1,0.280843500281,202.397009116,1,1,0.170585677261,5,7.0,32,bw,99.783319302,2019_may_20_1038,008,256,20,5,Lierni,Experiment_EEG_version,20,
Living_Things,../experiment_stimuli/bw_bc_bl/Living_Things/Animals/lynx_5.jpg,Animals,0,lynx,0,57,57,50,204.300483306,nV_V,2,204.305562478,205.553100457,1,2,0.76188810356,206.335549781,3,0,0.12050302967,5,7.5,32,bw,99.783319302,2019_may_20_1038,008,256,20,5,Lierni,Experiment_EEG_version,20,
Nonliving_Things,../experiment_stimuli/bw_bc_bl/Nonliving_Things/Kitchen_Uten/teapot_18.jpg,Kitchen_Uten,0,teapot,0,58,58,83,208.188935133,nV_V,1,208.196243066,209.421522465,1,1,1.06253894069,210.50460966,2,0,0.0102376765572,5,6.0,32,bw,99.783319302,2019_may_20_1038,008,256,20,5,Lierni,Experiment_EEG_version,20,
Nonliving_Things,../experiment_stimuli/bw_bc_bl/Nonliving_Things/Vehicles/van_25.jpg,Vehicles,0,van,0,59,59,91,212.247754226,V_nV,2,212.252645983,213.48034054,1,2,0.0703796648886,213.571296124,2,0,1.18279439502,5,7.5,32,bw,99.783319302,2019_may_20_1038,008,256,20,5,Lierni,Experiment_EEG_version,20,
Living_Things,../experiment_stimuli/bw_bc_bl/Living_Things/Insects/scorpion_19.jpg,Insects,0,scorpion,0,60,60,73,216.486972074,nV_V,2,216.491887436,217.719550429,0,1,0.330960993073,218.071087977,1,1,0.210696580121,5,8.0,32,bw,99.783319302,2019_may_20_1038,008,256,20,5,Lierni,Experiment_EEG_version,20,
Nonliving_Things,../experiment_stimuli/bw_bc_bl/Nonliving_Things/Vehicles/motorbike_3.jpg,Vehicles,0,motorbike,0,61,61,54,220.01465821,nV_V,1,220.019718021,221.267271579,1,1,0.511395905633,221.799231427,3,0,0.120481229387,5,6.0,32,bw,99.783319302,2019_may_20_1038,008,256,20,5,Lierni,Experiment_EEG_version,20,
Living_Things,../experiment_stimuli/bw_bc_bl/Living_Things/Birds/partridge_16.jpg,Birds,0,partridge,0,62,62,59,223.652548057,nV_V,2,223.657446856,224.885133653,1,2,0.260792377871,225.16649221,1,1,0.0503352226224,5,6.0,32,bw,99.783319302,2019_may_20_1038,008,256,20,5,Lierni,Experiment_EEG_version,20,
Living_Things,../experiment_stimuli/bw_bc_bl/Living_Things/Animals/turtle_7.jpg,Animals,0,turtle,0,63,63,90,226.94972604,nV_V,2,226.954618662,228.202340191,1,2,0.451218759525,228.67412428,3,0,0.120486943517,5,6.0,32,bw,99.783319302,2019_may_20_1038,008,256,20,5,Lierni,Experiment_EEG_version,20,
Nonliving_Things,../experiment_stimuli/bw_bc_bl/Nonliving_Things/Musical_Inst/piano__0.jpg,Musical_Inst,0,piano,0,64,64,62,230.527518105,nV_V,1,230.532458109,231.760079878,1,1,0.361010829802,232.141643511,1,1,0.17059807945,5,6.5,32,bw,99.783319302,2019_may_20_1038,008,256,20,5,Lierni,Experiment_EEG_version,20,
Nonliving_Things,../experiment_stimuli/bw_bc_bl/Nonliving_Things/Buildings/mill_19.jpg,Buildings,0,mill,0,65,65,53,234.045145028,nV_V,1,234.05019699,235.297771946,0,2,0.611553230206,235.939903614,2,0,0.220697497018,5,6.0,32,bw,99.783319302,2019_may_20_1038,008,256,20,5,Lierni,Experiment_EEG_version,20,
Living_Things,../experiment_stimuli/bw_bc_bl/Living_Things/Birds/penguin_11.jpg,Birds,0,penguin,0,66,66,61,237.893508827,V_nV,1,237.898456456,239.13611182,1,1,0.521360709914,239.678024503,2,0,0.140381293837,5,6.5,32,bw,99.783319302,2019_may_20_1038,008,256,20,5,Lierni,Experiment_EEG_version,20,
Living_Things,../experiment_stimuli/bw_bc_bl/Living_Things/Birds/raven_2.jpg,Birds,0,raven,0,67,67,67,241.551472695,nV_V,2,241.556335408,242.784042701,0,1,0.240745867952,243.055368604,2,0,0.0503873986891,5,6.5,32,bw,99.783319302,2019_may_20_1038,008,256,20,5,Lierni,Experiment_EEG_version,20,
Living_Things,../experiment_stimuli/bw_bc_bl/Living_Things/Marine_creatures/dolphin_14.jpg,Marine_creatures,0,dolphin,0,68,68,23,244.838603385,V_nV,1,244.843376016,246.071194052,0,2,0.240748484386,246.332498491,2,0,0.120485710562,5,7.5,32,bw,99.783319302,2019_may_20_1038,008,256,20,5,Lierni,Experiment_EEG_version,20,
Living_Things,../experiment_stimuli/bw_bc_bl/Living_Things/Animals/cow_21.jpg,Animals,0,cow,0,69,69,20,248.185884662,V_nV,1,248.192142414,249.418467434,1,1,0.300886747427,249.739901229,1,1,0.230724105611,5,6.5,32,bw,99.783319302,2019_may_20_1038,008,256,20,5,Lierni,Experiment_EEG_version,20,
Nonliving_Things,../experiment_stimuli/bw_bc_bl/Nonliving_Things/Kitchen_Uten/saucepan_16.jpg,Kitchen_Uten,0,saucepan,0,70,70,71,251.703535938,V_nV,2,251.708385519,252.956156521,1,2,0.541409546975,253.518121206,3,0,0.140526607865,5,7.5,32,bw,99.783319302,2019_may_20_1038,008,256,20,5,Lierni,Experiment_EEG_version,20,
Living_Things,../experiment_stimuli/bw_bc_bl/Living_Things/Birds/seagull_18.jpg,Birds,0,seagull,0,71,71,74,255.391548544,V_nV,1,255.396431061,256.624128354,0,2,0.270810696878,256.915524899,1,1,0.0202596833697,5,6.0,32,bw,99.783319302,2019_may_20_1038,008,256,20,5,Lierni,Experiment_EEG_version,20,
Nonliving_Things,../experiment_stimuli/bw_bc_bl/Nonliving_Things/Furniture/lectern_15.jpg,Furniture,0,lectern,0,72,72,47,258.668679205,V_nV,2,258.673555552,259.911274992,1,2,0.461248789099,260.393085445,2,0,0.230723440065,5,6.0,32,bw,99.783319302,2019_may_20_1038,008,256,20,5,Lierni,Experiment_EEG_version,20,
Nonliving_Things,../experiment_stimuli/bw_bc_bl/Nonliving_Things/Vehicles/boat_22.jpg,Vehicles,0,boat,0,73,73,7,262.35671033,nV_V,1,262.362880385,263.589276122,0,2,0.220708219102,263.830522189,1,1,0.110467688646,5,6.0,32,bw,99.783319302,2019_may_20_1038,008,256,20,5,Lierni,Experiment_EEG_version,20,
Nonliving_Things,../experiment_stimuli/bw_bc_bl/Nonliving_Things/Vehicles/car_26.jpg,Vehicles,0,car,0,74,74,11,265.694035531,nV_V,1,265.699008152,266.956596577,1,1,0.431169452611,267.408296976,3,0,0.120479831006,5,6.0,32,bw,99.783319302,2019_may_20_1038,008,256,20,5,Lierni,Experiment_EEG_version,20,
Living_Things,../experiment_stimuli/bw_bc_bl/Living_Things/Birds/pigeon_9.jpg,Birds,0,pigeon,0,75,75,63,269.261714245,nV_V,2,269.266689903,270.504306889,1,2,0.561451883987,271.086318734,3,0,0.160570331966,5,6.0,32,bw,99.783319302,2019_may_20_1038,008,256,20,5,Lierni,Experiment_EEG_version,20,
Living_Things,../experiment_stimuli/bw_bc_bl/Living_Things/Animals/cheetah_25.jpg,Animals,0,cheetah,0,76,76,16,272.97979259,V_nV,1,272.984787117,274.212370645,0,2,0.361010258319,274.593933447,1,1,0.0201051294571,5,6.5,32,bw,99.783319302,2019_may_20_1038,008,256,20,5,Lierni,Experiment_EEG_version,20,
Nonliving_Things,../experiment_stimuli/bw_bc_bl/Nonliving_Things/Buildings/factory_4.jpg,Buildings,0,factory,0,77,77,28,276.347107286,V_nV,2,276.354958166,277.599734809,1,2,0.340968567878,277.961242519,1,1,0.130514487741,5,6.5,32,bw,99.783319302,2019_may_20_1038,008,256,20,5,Lierni,Experiment_EEG_version,20,
Nonliving_Things,../experiment_stimuli/bw_bc_bl/Nonliving_Things/Kitchen_Uten/frying-pan_19.jpg,Kitchen_Uten,0,frying-pan,0,78,78,31,279.824675824,nV_V,1,279.829421749,281.107357518,1,1,0.701763002318,281.829688237,2,0,0.120489368564,5,6.0,32,bw,99.783319302,2019_may_20_1038,008,256,20,5,Lierni,Experiment_EEG_version,20,
Living_Things,../experiment_stimuli/bw_bc_bl/Living_Things/Insects/dragonfly_13.jpg,Insects,0,dragonfly,0,79,79,24,283.683072784,V_nV,1,283.689384547,284.95572322,1,1,0.591515618842,285.567813555,3,0,0.0102418118622,5,6.0,32,bw,99.783319302,2019_may_20_1038,008,256,20,5,Lierni,Experiment_EEG_version,20,
Nonliving_Things,../experiment_stimuli/bw_bc_bl/Nonliving_Things/Furniture/armchair_13.jpg,Furniture,0,armchair,0,80,80,2,287.320978616,nV_V,1,287.327139178,288.573593365,1,1,0.240764213493,288.834925329,2,0,0.13050520618,5,6.5,32,bw,99.783319302,2019_may_20_1038,008,256,20,5,Lierni,Experiment_EEG_version,20,
Living_Things,../experiment_stimuli/bw_bc_bl/Living_Things/Animals/zebra_25.jpg,Animals,0,zebra,0,81,81,95,290.698326439,nV_V,2,290.703241613,291.940907031,0,1,0.180626905407,292.142082552,2,0,0.190481452388,5,6.0,32,bw,99.783319302,2019_may_20_1038,008,256,20,5,Lierni,Experiment_EEG_version,20,
Living_Things,../experiment_stimuli/bw_bc_bl/Living_Things/Birds/duck_12.jpg,Birds,0,duck,0,82,82,26,294.065625116,V_nV,1,294.070549896,295.298207581,1,1,0.250765070319,295.569510127,1,1,0.180613822886,5,6.0,32,bw,99.783319302,2019_may_20_1038,008,256,20,5,Lierni,Experiment_EEG_version,20,
Living_Things,../experiment_stimuli/bw_bc_bl/Living_Things/Marine_creatures/pomfret_10.jpg,Marine_creatures,0,pomfret,0,83,83,65,297.48305288,V_nV,1,297.487852831,298.755728748,0,2,0.401103059994,299.177389454,1,1,0.100457391934,5,8.0,32,bw,99.783319302,2019_may_20_1038,008,256,20,5,Lierni,Experiment_EEG_version,20,
Living_Things,../experiment_stimuli/bw_bc_bl/Living_Things/Marine_creatures/narwhal_23.jpg,Marine_creatures,0,narwhal,0,84,84,55,301.010731791,nV_V,2,301.020222249,302.283391102,1,2,0.441185241449,302.755149181,3,0,0.130513476674,5,6.0,32,bw,99.783319302,2019_may_20_1038,008,256,20,5,Lierni,Experiment_EEG_version,20,
Nonliving_Things,../experiment_stimuli/bw_bc_bl/Nonliving_Things/Buildings/church_5.jpg,Buildings,0,church,0,85,85,17,304.618564772,nV_V,1,304.624908655,305.861169145,0,2,0.360854196479,306.242590393,1,1,0.150551603292,5,7.5,32,bw,99.783319302,2019_may_20_1038,008,256,20,5,Lierni,Experiment_EEG_version,20,
Nonliving_Things,../experiment_stimuli/bw_bc_bl/Nonliving_Things/Kitchen_Uten/cup_14.jpg,Kitchen_Uten,0,cup,0,86,86,22,308.126192394,nV_V,1,308.130915252,309.398860416,1,1,0.381077655242,309.800516171,2,0,0.140529389842,5,7.0,32,bw,99.783319302,2019_may_20_1038,008,256,20,5,Lierni,Experiment_EEG_version,20,
Living_Things,../experiment_stimuli/bw_bc_bl/Living_Things/Birds/sparrow_24.jpg,Birds,0,sparrow,0,87,87,79,311.683942149,nV_V,2,311.688864282,312.936549462,1,2,0.441184760653,313.398296529,3,0,0.130525743589,5,6.0,32,bw,99.783319302,2019_may_20_1038,008,256,20,5,Lierni,Experiment_EEG_version,20,
Living_Things,../experiment_stimuli/bw_bc_bl/Living_Things/Animals/tiger_8.jpg,Animals,0,tiger,0,88,88,84,315.261702455,nV_V,2,315.266525927,316.494298915,1,2,0.320933418814,316.835772566,1,1,0.180626450805,5,6.5,32,bw,99.783319302,2019_may_20_1038,008,256,20,5,Lierni,Experiment_EEG_version,20,
Nonliving_Things,../experiment_stimuli/bw_bc_bl/Nonliving_Things/Buildings/granary_6.jpg,Buildings,0,granary,0,89,89,35,318.759319574,nV_V,1,318.764220587,320.001912572,1,1,0.320932324976,320.34341073,1,1,0.190650683129,5,6.0,32,bw,99.783319302,2019_may_20_1038,008,256,20,5,Lierni,Experiment_EEG_version,20,
Nonliving_Things,../experiment_stimuli/bw_bc_bl/Nonliving_Things/Kitchen_Uten/small-saucepan_23.jpg,Kitchen_Uten,0,small-saucepan,0,90,90,77,322.266933156,nV_V,1,322.271807789,323.539603448,1,1,0.541248432477,324.101421158,2,0,0.0803964125225,5,7.0,32,bw,99.783319302,2019_may_20_1038,008,256,20,5,Lierni,Experiment_EEG_version,20,
Living_Things,../experiment_stimuli/bw_bc_bl/Living_Things/Animals/elephant_16.jpg,Animals,0,elephant,0,91,91,27,325.914872882,nV_V,2,325.919746323,327.167489769,0,1,0.441185809439,327.629233856,2,0,0.100441508926,5,8.0,32,bw,99.783319302,2019_may_20_1038,008,256,20,5,Lierni,Experiment_EEG_version,20,
Living_Things,../experiment_stimuli/bw_bc_bl/Living_Things/Birds/magpie_10.jpg,Birds,0,magpie,0,92,92,51,329.46257416,V_nV,1,329.467412794,330.705185217,0,2,0.952298331656,331.678035927,3,0,0.130510288756,5,7.0,32,bw,99.783319302,2019_may_20_1038,008,256,20,5,Lierni,Experiment_EEG_version,20,
Nonliving_Things,../experiment_stimuli/bw_bc_bl/Nonliving_Things/Musical_Inst/drum_12.jpg,Musical_Inst,0,drum,0,93,93,25,333.541452721,nV_V,1,333.54626422,334.774031599,0,2,0.380046023289,335.175633554,1,1,0.120500815567,5,6.0,32,bw,99.783319302,2019_may_20_1038,008,256,20,5,Lierni,Experiment_EEG_version,20,
Living_Things,../experiment_stimuli/bw_bc_bl/Living_Things/Birds/goose_26.jpg,Birds,0,goose,0,94,94,34,337.029031278,V_nV,1,337.033874445,338.271638049,1,1,0.551421147888,338.843623662,1,1,0.511335357442,5,6.0,32,bw,99.783319302,2019_may_20_1038,008,256,20,5,Lierni,Experiment_EEG_version,20,
Nonliving_Things,../experiment_stimuli/bw_bc_bl/Nonliving_Things/Buildings/house_12.jpg,Buildings,0,house,0,95,95,41,341.097904077,V_nV,2,341.102697162,342.360521423,1,2,0.320933114388,342.702007547,1,1,0.0603516920237,5,6.0,32,bw,99.783319302,2019_may_20_1038,008,256,20,5,Lierni,Experiment_EEG_version,20,
