category,probe_path,subcategory,fixation_duration,label,trials.thisRepN,trials.thisTrialN,trials.thisN,trials.thisIndex,image_onset_time,response_window,correctAns,probe_onset,discrim_resptime,response.corr,response.keys,response.rt,visible_resptime,visible.keys,visible.corr,visible.rt,probeFrames,jitter2,n_square,experiment_color,frameRate,date,session,image_size,premask_dur,probeFrames,participant,expName,postmask_dur,
Nonliving_Things,../experiment_stimuli/bw_bc_bl/Nonliving_Things/Kitchen_Uten/frying-pan_21.jpg,Kitchen_Uten,0,frying-pan,0,0,0,31,3.71886483044,V_nV,2,3.74016681104,5.00155167095,1,2,4.00893539796,9.04133135639,3,0,0.461223108927,5,6.5,32,bw,99.7863588225,2019_may_23_1607,010,256,20,5,lierni,Experiment_EEG_version,20,
Nonliving_Things,../experiment_stimuli/bw_bc_bl/Nonliving_Things/Furniture/lectern_16.jpg,Furniture,0,lectern,0,1,1,47,11.2352078692,V_nV,2,11.2400444204,12.4878257192,1,2,0.411120439181,12.9194817438,2,0,0.160573741887,5,8.0,32,bw,99.7863588225,2019_may_23_1607,010,256,20,5,lierni,Experiment_EEG_version,20,
Living_Things,../experiment_stimuli/bw_bc_bl/Living_Things/Animals/cat_0.jpg,Animals,0,cat,0,2,2,13,14.8129756376,V_nV,1,14.8178689776,16.0566104846,1,1,0.300883036805,16.387048271,2,0,0.100459072506,5,6.5,32,bw,99.7863588225,2019_may_23_1607,010,256,20,5,lierni,Experiment_EEG_version,20,
Living_Things,../experiment_stimuli/bw_bc_bl/Living_Things/Birds/rooster_12.jpg,Birds,0,rooster,0,3,3,70,18.220375282,nV_V,2,18.2262106235,19.4529711031,1,2,0.220711545786,19.6942136032,1,1,0.0603514814284,5,7.0,32,bw,99.7863588225,2019_may_23_1607,010,256,20,5,lierni,Experiment_EEG_version,20,
Living_Things,../experiment_stimuli/bw_bc_bl/Living_Things/Birds/hen_6.jpg,Birds,0,hen,0,4,4,38,21.4874821613,V_nV,1,21.4923749298,22.7301030494,1,1,0.371033141157,23.1216746594,1,1,0.180610161275,5,7.5,32,bw,99.7863588225,2019_may_23_1607,010,256,20,5,lierni,Experiment_EEG_version,20,
Nonliving_Things,../experiment_stimuli/bw_bc_bl/Nonliving_Things/Furniture/rocking-chair_21.jpg,Furniture,0,rocking-chair,0,5,5,69,25.0351938941,nV_V,1,25.0402167735,26.2978381906,1,1,0.611552290386,26.929925879,3,0,0.18062806339,5,6.0,32,bw,99.7863588225,2019_may_23_1607,010,256,20,5,lierni,Experiment_EEG_version,20,
Living_Things,../experiment_stimuli/bw_bc_bl/Living_Things/Birds/sparrow_5.jpg,Birds,0,sparrow,0,6,6,79,28.8434654365,nV_V,2,28.8484369481,30.0860702121,0,1,0.421145900851,30.5277779198,2,0,0.17063990212,5,6.0,32,bw,99.7863588225,2019_may_23_1607,010,256,20,5,lierni,Experiment_EEG_version,20,
Living_Things,../experiment_stimuli/bw_bc_bl/Living_Things/Birds/hummingbird_20.jpg,Birds,0,hummingbird,0,7,7,42,32.4312667416,V_nV,1,32.4363118988,33.6638489277,0,2,0.210706196725,33.8951086944,1,1,0.0302856976632,5,6.0,32,bw,99.7863588225,2019_may_23_1607,010,256,20,5,lierni,Experiment_EEG_version,20,
Nonliving_Things,../experiment_stimuli/bw_bc_bl/Nonliving_Things/Buildings/castle_6.jpg,Buildings,0,castle,0,8,8,12,35.6582838567,nV_V,1,35.6631704185,36.910904658,1,1,0.501315805363,37.4327823117,3,0,0.100441967603,5,6.0,32,bw,99.7863588225,2019_may_23_1607,010,256,20,5,lierni,Experiment_EEG_version,20,
Living_Things,../experiment_stimuli/bw_bc_bl/Living_Things/Animals/hippopotamus_17.jpg,Animals,0,hippopotamus,0,9,9,39,39.2661225742,nV_V,2,39.2709433474,40.4987075494,0,1,0.0503565233666,40.5696326615,1,1,3.60807059007,5,6.0,32,bw,99.7863588225,2019_may_23_1607,010,256,20,5,lierni,Experiment_EEG_version,20,
Living_Things,../experiment_stimuli/bw_bc_bl/Living_Things/Marine_creatures/whale_7.jpg,Marine_creatures,0,whale,0,10,10,94,45.91056913,nV_V,2,45.9156164827,47.1732169527,0,1,0.411120029399,47.6048827106,2,0,0.260787975742,5,6.5,32,bw,99.7863588225,2019_may_23_1607,010,256,20,5,lierni,Experiment_EEG_version,20,
Nonliving_Things,../experiment_stimuli/bw_bc_bl/Nonliving_Things/Vehicles/motorbike_10.jpg,Vehicles,0,motorbike,0,11,11,54,49.5985817106,V_nV,2,49.6047461035,50.851208549,1,2,0.531225963496,51.4029892331,3,0,0.130505352747,5,6.5,32,bw,99.7863588225,2019_may_23_1607,010,256,20,5,lierni,Experiment_EEG_version,20,
Living_Things,../experiment_stimuli/bw_bc_bl/Living_Things/Birds/pelican_12.jpg,Birds,0,pelican,0,12,12,60,53.2665602772,nV_V,2,53.2714606132,54.4991375008,1,2,0.521353793098,55.0410338566,1,1,0.170447224285,5,6.0,32,bw,99.7863588225,2019_may_23_1607,010,256,20,5,lierni,Experiment_EEG_version,20,
Nonliving_Things,../experiment_stimuli/bw_bc_bl/Nonliving_Things/Kitchen_Uten/teapot_11.jpg,Kitchen_Uten,0,teapot,0,13,13,83,56.9445517568,nV_V,1,56.9494655551,58.1971826707,1,1,0.551420662785,58.7691569491,3,0,0.210731925443,5,8.0,32,bw,99.7863588225,2019_may_23_1607,010,256,20,5,lierni,Experiment_EEG_version,20,
Living_Things,../experiment_stimuli/bw_bc_bl/Living_Things/Animals/cheetah_19.jpg,Animals,0,cheetah,0,14,14,16,60.712736723,V_nV,1,60.7178091356,61.9453268864,1,1,0.381054918515,62.3469156087,1,1,0.200652197469,5,6.0,32,bw,99.7863588225,2019_may_23_1607,010,256,20,5,lierni,Experiment_EEG_version,20,
Living_Things,../experiment_stimuli/bw_bc_bl/Living_Things/Birds/barn-owl_7.jpg,Birds,0,barn-owl,0,15,15,4,64.2804946199,V_nV,1,64.2861146862,65.5331214322,0,2,0.531379194465,66.0850778806,2,0,0.170614917297,5,6.5,32,bw,99.7863588225,2019_may_23_1607,010,256,20,5,lierni,Experiment_EEG_version,20,
Living_Things,../experiment_stimuli/bw_bc_bl/Living_Things/Birds/duck_13.jpg,Birds,0,duck,0,16,16,26,67.9885659581,V_nV,1,67.9935246168,69.2311582677,0,2,0.220723936567,69.4724320604,1,1,0.120480334619,5,6.0,32,bw,99.7863588225,2019_may_23_1607,010,256,20,5,lierni,Experiment_EEG_version,20,
Nonliving_Things,../experiment_stimuli/bw_bc_bl/Nonliving_Things/Vehicles/train_14.jpg,Vehicles,0,train,0,17,17,87,71.3258143482,nV_V,1,71.3314795301,72.5984768094,1,1,0.471088053891,73.0901231107,3,0,0.180700987112,5,7.5,32,bw,99.7863588225,2019_may_23_1607,010,256,20,5,lierni,Experiment_EEG_version,20,
Nonliving_Things,../experiment_stimuli/bw_bc_bl/Nonliving_Things/Furniture/bed_2.jpg,Furniture,0,bed,0,18,18,5,75.0038021249,V_nV,2,75.0088211733,76.2464180843,1,2,0.471272994997,76.7382470744,2,0,0.250761491479,5,6.5,32,bw,99.7863588225,2019_may_23_1607,010,256,20,5,lierni,Experiment_EEG_version,20,
Nonliving_Things,../experiment_stimuli/bw_bc_bl/Nonliving_Things/Furniture/Chest-of-drawers_17.jpg,Furniture,0,Chest-of-drawers,0,19,19,0,78.7218923685,V_nV,2,78.7270232954,79.9544674193,0,1,0.000256007304415,79.9752718844,2,0,0.180629559793,5,6.0,32,bw,99.7863588225,2019_may_23_1607,010,256,20,5,lierni,Experiment_EEG_version,20,
Nonliving_Things,../experiment_stimuli/bw_bc_bl/Nonliving_Things/Kitchen_Uten/saucepan_6.jpg,Kitchen_Uten,0,saucepan,0,20,20,71,81.8887736946,V_nV,2,81.8936639142,83.1213520872,1,2,0.320919170976,83.4628222305,1,1,0.130507946946,5,6.5,32,bw,99.7863588225,2019_may_23_1607,010,256,20,5,lierni,Experiment_EEG_version,20,
Living_Things,../experiment_stimuli/bw_bc_bl/Living_Things/Insects/dragonfly_4.jpg,Insects,0,dragonfly,0,21,21,24,85.3262501489,V_nV,1,85.3312482017,86.5788713449,1,1,0.170605684398,86.770037344,1,1,0.200660272734,5,8.0,32,bw,99.7863588225,2019_may_23_1607,010,256,20,5,lierni,Experiment_EEG_version,20,
Living_Things,../experiment_stimuli/bw_bc_bl/Living_Things/Insects/butterfly_21.jpg,Insects,0,butterfly,0,22,22,10,88.7035865658,nV_V,2,88.7086460802,89.9862762333,1,2,0.701747653075,90.7085796557,3,0,0.110455609625,5,6.0,32,bw,99.7863588225,2019_may_23_1607,010,256,20,5,lierni,Experiment_EEG_version,20,
Nonliving_Things,../experiment_stimuli/bw_bc_bl/Nonliving_Things/Furniture/armchair_14.jpg,Furniture,0,armchair,0,23,23,2,92.5519516584,nV_V,1,92.557917054,93.8045752563,1,1,0.511333684437,94.3364620563,3,0,0.150548712118,5,6.0,32,bw,99.7863588225,2019_may_23_1607,010,256,20,5,lierni,Experiment_EEG_version,20,
Living_Things,../experiment_stimuli/bw_bc_bl/Living_Things/Animals/horse_21.jpg,Animals,0,horse,0,24,24,40,96.2199247552,V_nV,1,96.2250578173,97.4525048621,1,1,0.00025269202888,97.4733031958,3,0,0.260805313475,5,6.0,32,bw,99.7863588225,2019_may_23_1607,010,256,20,5,lierni,Experiment_EEG_version,20,
Living_Things,../experiment_stimuli/bw_bc_bl/Living_Things/Marine_creatures/narwhal_25.jpg,Marine_creatures,0,narwhal,0,25,25,55,99.4669918085,V_nV,1,99.4736356721,100.699562213,1,1,0.330949031282,101.051092246,1,1,0.22069610632,5,6.0,32,bw,99.7863588225,2019_may_23_1607,010,256,20,5,lierni,Experiment_EEG_version,20,
Nonliving_Things,../experiment_stimuli/bw_bc_bl/Nonliving_Things/Vehicles/bus_14.jpg,Vehicles,0,bus,0,26,26,9,103.004670877,V_nV,2,103.009657945,104.267320779,1,2,0.471269348403,104.769178441,3,0,0.170583835104,5,6.0,32,bw,99.7863588225,2019_may_23_1607,010,256,20,5,lierni,Experiment_EEG_version,20,
Nonliving_Things,../experiment_stimuli/bw_bc_bl/Nonliving_Things/Tools/hammer_6.jpg,Tools,0,hammer,0,27,27,37,106.672649485,nV_V,1,106.677678744,107.905226851,0,2,0.250765622826,108.176550826,1,1,0.110469139647,5,6.5,32,bw,99.7863588225,2019_may_23_1607,010,256,20,5,lierni,Experiment_EEG_version,20,
Nonliving_Things,../experiment_stimuli/bw_bc_bl/Nonliving_Things/Furniture/bedside-table_0.jpg,Furniture,0,bedside-table,0,28,28,6,110.019933145,V_nV,2,110.024938689,111.262532131,1,2,0.410961836111,111.694054868,1,1,0.0403271932155,5,6.0,32,bw,99.7863588225,2019_may_23_1607,010,256,20,5,lierni,Experiment_EEG_version,20,
Living_Things,../experiment_stimuli/bw_bc_bl/Living_Things/Birds/owl_3.jpg,Birds,0,owl,0,29,29,57,113.467417237,V_nV,1,113.474259978,114.720043516,1,1,0.44119461393,115.181798189,2,0,0.18063411233,5,6.0,32,bw,99.7863588225,2019_may_23_1607,010,256,20,5,lierni,Experiment_EEG_version,20,
Living_Things,../experiment_stimuli/bw_bc_bl/Living_Things/Birds/penguin_20.jpg,Birds,0,penguin,0,30,30,61,117.095302965,nV_V,2,117.100399249,118.337909353,0,1,0.471250044415,118.829722956,2,0,0.110463692574,5,6.0,32,bw,99.7863588225,2019_may_23_1607,010,256,20,5,lierni,Experiment_EEG_version,20,
Living_Things,../experiment_stimuli/bw_bc_bl/Living_Things/Animals/cow_16.jpg,Animals,0,cow,0,31,31,20,120.673079139,V_nV,1,120.679090959,121.905663066,0,2,0.250783336814,122.176991548,2,0,0.150546347722,5,6.0,32,bw,99.7863588225,2019_may_23_1607,010,256,20,5,lierni,Experiment_EEG_version,20,
Living_Things,../experiment_stimuli/bw_bc_bl/Living_Things/Birds/partridge_14.jpg,Birds,0,partridge,0,32,32,59,124.060456296,V_nV,1,124.065485119,125.293037298,1,1,0.250980352983,125.564544988,2,0,0.731828556862,5,6.0,32,bw,99.7863588225,2019_may_23_1607,010,256,20,5,lierni,Experiment_EEG_version,20,
Living_Things,../experiment_stimuli/bw_bc_bl/Living_Things/Birds/kiwi_18.jpg,Birds,0,kiwi,0,33,33,44,128.029076606,V_nV,1,128.034070252,129.261665228,0,2,0.250775228254,129.532973703,1,1,0.0904178514611,5,6.0,32,bw,99.7863588225,2019_may_23_1607,010,256,20,5,lierni,Experiment_EEG_version,20,
Living_Things,../experiment_stimuli/bw_bc_bl/Living_Things/Birds/raven_5.jpg,Birds,0,raven,0,34,34,67,131.356307887,nV_V,2,131.362428788,132.618953894,1,2,0.551423786907,133.190927985,3,0,0.110466959421,5,6.0,32,bw,99.7863588225,2019_may_23_1607,010,256,20,5,lierni,Experiment_EEG_version,20,
Nonliving_Things,../experiment_stimuli/bw_bc_bl/Nonliving_Things/Vehicles/plane_25.jpg,Vehicles,0,plane,0,35,35,64,135.034304844,V_nV,2,135.040542849,136.266882842,1,2,0.220706594642,136.508152665,2,0,0.160562320612,5,6.0,32,bw,99.7863588225,2019_may_23_1607,010,256,20,5,lierni,Experiment_EEG_version,20,
Nonliving_Things,../experiment_stimuli/bw_bc_bl/Nonliving_Things/Furniture/sofa_5.jpg,Furniture,0,sofa,0,36,36,78,138.401622063,nV_V,1,138.406731512,139.634205474,1,1,0.431159103522,140.085933189,2,0,0.20065208897,5,8.0,32,bw,99.7863588225,2019_may_23_1607,010,256,20,5,lierni,Experiment_EEG_version,20,
Nonliving_Things,../experiment_stimuli/bw_bc_bl/Nonliving_Things/Buildings/church_3.jpg,Buildings,0,church,0,37,37,17,142.019484306,V_nV,2,142.02473884,143.262101765,1,2,0.391081703827,143.67372251,1,1,0.110461034579,5,6.0,32,bw,99.7863588225,2019_may_23_1607,010,256,20,5,lierni,Experiment_EEG_version,20,
Nonliving_Things,../experiment_stimuli/bw_bc_bl/Nonliving_Things/Musical_Inst/drum_9.jpg,Musical_Inst,0,drum,0,38,38,25,145.517089132,nV_V,1,145.522298193,146.769718121,1,1,0.511336924974,147.301593128,2,0,0.14053067565,5,7.0,32,bw,99.7863588225,2019_may_23_1607,010,256,20,5,lierni,Experiment_EEG_version,20,
Nonliving_Things,../experiment_stimuli/bw_bc_bl/Nonliving_Things/Vehicles/boat_20.jpg,Vehicles,0,boat,0,39,39,7,149.175045252,V_nV,2,149.181983236,150.417649216,1,2,0.471259251004,150.909449996,3,0,0.120487928623,5,6.5,32,bw,99.7863588225,2019_may_23_1607,010,256,20,5,lierni,Experiment_EEG_version,20,
Nonliving_Things,../experiment_stimuli/bw_bc_bl/Nonliving_Things/Furniture/wardrobe_20.jpg,Furniture,0,wardrobe,0,40,40,93,152.76284367,nV_V,1,152.767970289,153.995425127,0,2,0.240765326424,154.256748576,1,1,0.0703763682395,5,6.0,32,bw,99.7863588225,2019_may_23_1607,010,256,20,5,lierni,Experiment_EEG_version,20,
Living_Things,../experiment_stimuli/bw_bc_bl/Living_Things/Animals/tiger_22.jpg,Animals,0,tiger,0,41,41,84,156.060026664,V_nV,1,156.065154812,157.312635416,1,1,0.410966933705,157.744166822,2,0,0.13051014184,5,6.0,32,bw,99.7863588225,2019_may_23_1607,010,256,20,5,lierni,Experiment_EEG_version,20,
Nonliving_Things,../experiment_stimuli/bw_bc_bl/Nonliving_Things/Kitchen_Uten/cup_25.jpg,Kitchen_Uten,0,cup,0,42,42,22,159.607722938,nV_V,1,159.612856226,160.850323439,1,1,0.491293242201,161.362171147,3,0,0.150646801339,5,6.0,32,bw,99.7863588225,2019_may_23_1607,010,256,20,5,lierni,Experiment_EEG_version,20,
Living_Things,../experiment_stimuli/bw_bc_bl/Living_Things/Insects/ladybird_15.jpg,Insects,0,ladybird,0,43,43,45,163.245649537,nV_V,2,163.250613612,164.478226798,0,1,0.400938461069,164.899709389,2,0,0.130508897826,5,6.5,32,bw,99.7863588225,2019_may_23_1607,010,256,20,5,lierni,Experiment_EEG_version,20,
Living_Things,../experiment_stimuli/bw_bc_bl/Living_Things/Birds/goose_7.jpg,Birds,0,goose,0,44,44,34,166.763274204,V_nV,1,166.76842739,167.995857897,1,1,0.421143855667,168.437562861,3,0,0.170589132234,5,6.5,32,bw,99.7863588225,2019_may_23_1607,010,256,20,5,lierni,Experiment_EEG_version,20,
Living_Things,../experiment_stimuli/bw_bc_bl/Living_Things/Marine_creatures/lobster_10.jpg,Marine_creatures,0,lobster,0,45,45,49,170.341054454,V_nV,1,170.346202109,171.573632568,0,2,0.220725267427,171.814919827,1,1,0.0302867391147,5,6.5,32,bw,99.7863588225,2019_may_23_1607,010,256,20,5,lierni,Experiment_EEG_version,20,
Nonliving_Things,../experiment_stimuli/bw_bc_bl/Nonliving_Things/Furniture/couch_9.jpg,Furniture,0,couch,0,46,46,19,173.578088166,nV_V,1,173.583209183,174.840735199,1,1,0.641621408518,175.502918881,2,0,0.180621022126,5,6.0,32,bw,99.7863588225,2019_may_23_1607,010,256,20,5,lierni,Experiment_EEG_version,20,
Nonliving_Things,../experiment_stimuli/bw_bc_bl/Nonliving_Things/Furniture/chair_23.jpg,Furniture,0,chair,0,47,47,15,177.416441266,V_nV,2,177.421535596,178.669062845,1,2,0.441190407379,179.130826721,3,0,0.100473064929,5,6.0,32,bw,99.7863588225,2019_may_23_1607,010,256,20,5,lierni,Experiment_EEG_version,20,
Nonliving_Things,../experiment_stimuli/bw_bc_bl/Nonliving_Things/Furniture/bookcase_26.jpg,Furniture,0,bookcase,0,48,48,8,180.964148766,nV_V,1,180.969203728,182.196740557,0,2,0.290858097607,182.508138409,1,1,0.0102625673171,5,6.0,32,bw,99.7863588225,2019_may_23_1607,010,256,20,5,lierni,Experiment_EEG_version,20,
Living_Things,../experiment_stimuli/bw_bc_bl/Living_Things/Animals/tapir_4.jpg,Animals,0,tapir,0,49,49,82,184.251297099,V_nV,1,184.256493197,185.503914426,0,2,0.240753721446,185.765230789,1,1,0.0303035886027,5,8.0,32,bw,99.7863588225,2019_may_23_1607,010,256,20,5,lierni,Experiment_EEG_version,20,
Nonliving_Things,../experiment_stimuli/bw_bc_bl/Nonliving_Things/Vehicles/van_16.jpg,Vehicles,0,van,0,50,50,91,187.528413376,V_nV,2,187.53451745,188.811107096,1,2,0.371047163149,189.202723003,3,0,0.120530807646,5,6.0,32,bw,99.7863588225,2019_may_23_1607,010,256,20,5,lierni,Experiment_EEG_version,20,
Nonliving_Things,../experiment_stimuli/bw_bc_bl/Nonliving_Things/Musical_Inst/guitar_2.jpg,Musical_Inst,0,guitar,0,51,51,36,191.056107576,nV_V,1,191.061188548,192.308712629,1,1,0.350996071007,192.680265977,3,0,0.0503535754979,5,6.0,32,bw,99.7863588225,2019_may_23_1607,010,256,20,5,lierni,Experiment_EEG_version,20,
Living_Things,../experiment_stimuli/bw_bc_bl/Living_Things/Animals/turtle_22.jpg,Animals,0,turtle,0,52,52,90,194.463490675,nV_V,2,194.468631173,195.696076309,0,1,0.180621642852,195.897255687,1,1,0.160567038925,5,6.0,32,bw,99.7863588225,2019_may_23_1607,010,256,20,5,lierni,Experiment_EEG_version,20,
Living_Things,../experiment_stimuli/bw_bc_bl/Living_Things/Marine_creatures/manatee_6.jpg,Marine_creatures,0,manatee,0,53,53,52,197.790735472,V_nV,1,197.797030874,199.043364314,0,2,0.391079880297,199.455002802,3,0,0.110464410624,5,6.0,32,bw,99.7863588225,2019_may_23_1607,010,256,20,5,lierni,Experiment_EEG_version,20,
Living_Things,../experiment_stimuli/bw_bc_bl/Living_Things/Birds/magpie_7.jpg,Birds,0,magpie,0,54,54,51,201.298354271,nV_V,2,201.303427763,202.530934201,0,1,0.300719091669,202.85220489,1,1,0.160574835725,5,6.5,32,bw,99.7863588225,2019_may_23_1607,010,256,20,5,lierni,Experiment_EEG_version,20,
Nonliving_Things,../experiment_stimuli/bw_bc_bl/Nonliving_Things/Kitchen_Uten/small-saucepan_8.jpg,Kitchen_Uten,0,small-saucepan,0,55,55,77,204.745860029,nV_V,1,204.750864409,205.998474101,1,1,0.481276190141,206.500304621,3,0,0.140536720632,5,6.0,32,bw,99.7863588225,2019_may_23_1607,010,256,20,5,lierni,Experiment_EEG_version,20,
Nonliving_Things,../experiment_stimuli/bw_bc_bl/Nonliving_Things/Vehicles/car_4.jpg,Vehicles,0,car,0,56,56,11,208.37373682,V_nV,2,208.3801738,209.60631683,1,2,0.250788378064,209.877664086,1,1,0.0904393587261,5,6.0,32,bw,99.7863588225,2019_may_23_1607,010,256,20,5,lierni,Experiment_EEG_version,20,
Nonliving_Things,../experiment_stimuli/bw_bc_bl/Nonliving_Things/Musical_Inst/saxophone_11.jpg,Musical_Inst,0,saxophone,0,57,57,72,211.700962891,nV_V,1,211.708501716,212.943567603,0,2,0.300902160816,213.265046608,2,0,0.16041537188,5,6.0,32,bw,99.7863588225,2019_may_23_1607,010,256,20,5,lierni,Experiment_EEG_version,20,
Living_Things,../experiment_stimuli/bw_bc_bl/Living_Things/Marine_creatures/killer-whale_18.jpg,Marine_creatures,0,killer-whale,0,58,58,43,215.15848169,nV_V,2,215.163701409,216.391060786,1,2,0.280833485536,216.692452563,1,1,0.0403269522358,5,7.0,32,bw,99.7863588225,2019_may_23_1607,010,256,20,5,lierni,Experiment_EEG_version,20,
Living_Things,../experiment_stimuli/bw_bc_bl/Living_Things/Marine_creatures/dolphin_24.jpg,Marine_creatures,0,dolphin,0,59,59,23,218.465671702,nV_V,2,218.47073175,219.708294132,0,1,0.481272051111,220.210087182,2,0,0.130504777422,5,6.5,32,bw,99.7863588225,2019_may_23_1607,010,256,20,5,lierni,Experiment_EEG_version,20,
Living_Things,../experiment_stimuli/bw_bc_bl/Living_Things/Animals/zebra_11.jpg,Animals,0,zebra,0,60,60,95,222.073515469,V_nV,1,222.078689944,223.306094369,1,1,0.300886495505,223.627537829,2,0,0.0102678190451,5,6.0,32,bw,99.7863588225,2019_may_23_1607,010,256,20,5,lierni,Experiment_EEG_version,20,
Living_Things,../experiment_stimuli/bw_bc_bl/Living_Things/Marine_creatures/crab_19.jpg,Marine_creatures,0,crab,0,61,61,21,225.370682493,V_nV,1,225.376014127,226.603285629,1,1,0.240749390563,226.864575556,1,1,0.210679746,5,8.0,32,bw,99.7863588225,2019_may_23_1607,010,256,20,5,lierni,Experiment_EEG_version,20,
Living_Things,../experiment_stimuli/bw_bc_bl/Living_Things/Animals/lioness_21.jpg,Animals,0,lioness,0,62,62,48,228.808155947,V_nV,1,228.813591877,230.060780113,0,2,0.511338838609,230.592678254,3,0,0.120508597232,5,6.0,32,bw,99.7863588225,2019_may_23_1607,010,256,20,5,lierni,Experiment_EEG_version,20,
Living_Things,../experiment_stimuli/bw_bc_bl/Living_Things/Animals/rhino_7.jpg,Animals,0,rhino,0,63,63,68,232.446063647,V_nV,1,232.451203209,233.678645638,1,1,0.210685809841,233.909890886,2,0,0.120507089887,5,6.5,32,bw,99.7863588225,2019_may_23_1607,010,256,20,5,lierni,Experiment_EEG_version,20,
Living_Things,../experiment_stimuli/bw_bc_bl/Living_Things/Marine_creatures/shark_12.jpg,Marine_creatures,0,shark,0,64,64,75,235.763268956,nV_V,2,235.769733845,236.995866747,0,1,0.130515863886,237.14692164,2,0,0.150547637139,5,6.0,32,bw,99.7863588225,2019_may_23_1607,010,256,20,5,lierni,Experiment_EEG_version,20,
Living_Things,../experiment_stimuli/bw_bc_bl/Living_Things/Birds/seagull_1.jpg,Birds,0,seagull,0,65,65,74,239.030373963,nV_V,2,239.038084555,240.26295931,1,2,0.220709786518,240.514246666,1,1,0.0503229596652,5,6.5,32,bw,99.7863588225,2019_may_23_1607,010,256,20,5,lierni,Experiment_EEG_version,20,
Nonliving_Things,../experiment_stimuli/bw_bc_bl/Nonliving_Things/Furniture/table_14.jpg,Furniture,0,table,0,66,66,81,242.297479349,nV_V,1,242.302553615,243.560130188,1,1,0.511343319435,244.092017777,3,0,0.170590631897,5,6.0,32,bw,99.7863588225,2019_may_23_1607,010,256,20,5,lierni,Experiment_EEG_version,20,
Living_Things,../experiment_stimuli/bw_bc_bl/Living_Things/Marine_creatures/sperm-whale_6.jpg,Marine_creatures,0,sperm-whale,0,67,67,80,245.995536568,nV_V,2,246.000411604,247.228108461,0,1,0.160573347006,247.409217183,2,0,0.140376914293,5,6.0,32,bw,99.7863588225,2019_may_23_1607,010,256,20,5,lierni,Experiment_EEG_version,20,
Living_Things,../experiment_stimuli/bw_bc_bl/Living_Things/Birds/ostrich_22.jpg,Birds,0,ostrich,0,68,68,56,249.282663732,V_nV,1,249.28791701,250.515243459,0,2,0.220725286286,250.756516714,1,1,0.050328794634,5,6.0,32,bw,99.7863588225,2019_may_23_1607,010,256,20,5,lierni,Experiment_EEG_version,20,
Nonliving_Things,../experiment_stimuli/bw_bc_bl/Nonliving_Things/Vehicles/ship_25.jpg,Vehicles,0,ship,0,69,69,76,252.53975713,nV_V,1,252.546208711,253.802393864,1,1,0.521358205937,254.344307587,3,0,0.0904104229994,5,6.0,32,bw,99.7863588225,2019_may_23_1607,010,256,20,5,lierni,Experiment_EEG_version,20,
Living_Things,../experiment_stimuli/bw_bc_bl/Living_Things/Insects/scorpion_4.jpg,Insects,0,scorpion,0,70,70,73,256.167638414,V_nV,1,256.174300537,257.41024434,0,2,0.0102479474153,257.441056805,2,0,1.18279876374,5,6.0,32,bw,99.7863588225,2019_may_23_1607,010,256,20,5,lierni,Experiment_EEG_version,20,
Living_Things,../experiment_stimuli/bw_bc_bl/Living_Things/Birds/goldfinch_21.jpg,Birds,0,goldfinch,0,71,71,33,260.356739635,V_nV,1,260.361822152,261.599351887,1,1,0.260794111062,261.880689332,1,1,0.230720849941,5,6.0,32,bw,99.7863588225,2019_may_23_1607,010,256,20,5,lierni,Experiment_EEG_version,20,
Nonliving_Things,../experiment_stimuli/bw_bc_bl/Nonliving_Things/Musical_Inst/piano__26.jpg,Musical_Inst,0,piano,0,72,72,62,263.844321841,nV_V,1,263.849453351,265.08692156,0,2,0.471241262276,265.57871928,3,0,0.14054300962,5,6.0,32,bw,99.7863588225,2019_may_23_1607,010,256,20,5,lierni,Experiment_EEG_version,20,
Living_Things,../experiment_stimuli/bw_bc_bl/Living_Things/Marine_creatures/pomfret_16.jpg,Marine_creatures,0,pomfret,0,73,73,65,267.452160901,V_nV,1,267.457282538,268.684746534,1,1,0.230746898334,268.936048833,2,0,0.0803961080965,5,6.0,32,bw,99.7863588225,2019_may_23_1607,010,256,20,5,lierni,Experiment_EEG_version,20,
Nonliving_Things,../experiment_stimuli/bw_bc_bl/Nonliving_Things/Buildings/cathedral_21.jpg,Buildings,0,cathedral,0,74,74,14,270.749334218,V_nV,2,270.754477208,271.991943854,1,2,0.521358044585,272.533856059,2,0,0.29086029646,5,6.0,32,bw,99.7863588225,2019_may_23_1607,010,256,20,5,lierni,Experiment_EEG_version,20,
Nonliving_Things,../experiment_stimuli/bw_bc_bl/Nonliving_Things/Kitchen_Uten/pot_5.jpg,Kitchen_Uten,0,pot,0,75,75,66,274.557625455,nV_V,1,274.562526742,275.800215641,1,1,0.0202682474628,275.841017756,2,0,0.140524408547,5,6.5,32,bw,99.7863588225,2019_may_23_1607,010,256,20,5,lierni,Experiment_EEG_version,20,
Living_Things,../experiment_stimuli/bw_bc_bl/Living_Things/Birds/pigeon_14.jpg,Birds,0,pigeon,0,76,76,63,277.714467718,nV_V,2,277.721206509,278.957080798,1,2,0.591353932861,279.568965385,3,0,0.150572065497,5,6.0,32,bw,99.7863588225,2019_may_23_1607,010,256,20,5,lierni,Experiment_EEG_version,20,
Nonliving_Things,../experiment_stimuli/bw_bc_bl/Nonliving_Things/Buildings/granary_1.jpg,Buildings,0,granary,0,77,77,35,281.452597247,V_nV,2,281.45774223,282.685182699,1,2,0.68170977477,283.387423747,3,0,0.140524528921,5,6.5,32,bw,99.7863588225,2019_may_23_1607,010,256,20,5,lierni,Experiment_EEG_version,20,
Nonliving_Things,../experiment_stimuli/bw_bc_bl/Nonliving_Things/Furniture/filling-cabinet_1.jpg,Furniture,0,filling-cabinet,0,78,78,29,285.260885108,V_nV,2,285.265963671,286.49346455,1,2,0.551427752944,287.065448445,2,0,0.170447239187,5,6.0,32,bw,99.7863588225,2019_may_23_1607,010,256,20,5,lierni,Experiment_EEG_version,20,
Nonliving_Things,../experiment_stimuli/bw_bc_bl/Nonliving_Things/Kitchen_Uten/fondue_2.jpg,Kitchen_Uten,0,fondue,0,79,79,30,288.96893797,V_nV,2,288.974233758,290.211542862,1,2,0.250796592562,290.482892983,1,1,0.0501749431714,5,7.0,32,bw,99.7863588225,2019_may_23_1607,010,256,20,5,lierni,Experiment_EEG_version,20,
Nonliving_Things,../experiment_stimuli/bw_bc_bl/Nonliving_Things/Musical_Inst/trumpet_2.jpg,Musical_Inst,0,trumpet,0,80,80,88,292.266103971,nV_V,1,292.271304814,293.518732381,1,1,0.511344721774,294.050623948,3,0,0.130532585783,5,6.5,32,bw,99.7863588225,2019_may_23_1607,010,256,20,5,lierni,Experiment_EEG_version,20,
Nonliving_Things,../experiment_stimuli/bw_bc_bl/Nonliving_Things/Buildings/factory_13.jpg,Buildings,0,factory,0,81,81,28,295.914038802,nV_V,1,295.919147176,297.146634214,1,1,0.210706843529,297.377876109,1,1,0.230724537745,5,7.0,32,bw,99.7863588225,2019_may_23_1607,010,256,20,5,lierni,Experiment_EEG_version,20,
Nonliving_Things,../experiment_stimuli/bw_bc_bl/Nonliving_Things/Musical_Inst/tuba_10.jpg,Musical_Inst,0,tuba,0,82,82,89,299.341499178,nV_V,1,299.346708529,300.594113603,1,1,0.451219808543,301.065886663,2,0,0.160639500013,5,6.0,32,bw,99.7863588225,2019_may_23_1607,010,256,20,5,lierni,Experiment_EEG_version,20,
Nonliving_Things,../experiment_stimuli/bw_bc_bl/Nonliving_Things/Musical_Inst/violin_2.jpg,Musical_Inst,0,violin,0,83,83,92,302.959350286,V_nV,2,302.964473702,304.201955562,0,1,0.531399261905,304.753900954,2,0,0.130509499228,5,7.5,32,bw,99.7863588225,2019_may_23_1607,010,256,20,5,lierni,Experiment_EEG_version,20,
Nonliving_Things,../experiment_stimuli/bw_bc_bl/Nonliving_Things/Buildings/palace_14.jpg,Buildings,0,palace,0,84,84,58,306.617301557,V_nV,2,306.622316549,307.849890062,0,1,0.0100988929626,307.880542717,2,0,0.691726138582,5,7.0,32,bw,99.7863588225,2019_may_23_1607,010,256,20,5,lierni,Experiment_EEG_version,20,
Nonliving_Things,../experiment_stimuli/bw_bc_bl/Nonliving_Things/Vehicles/tractor_9.jpg,Vehicles,0,tractor,0,85,85,86,310.305321618,V_nV,2,310.313410059,311.537910954,1,2,0.360293655656,311.919492347,1,1,0.0803978601471,5,8.0,32,bw,99.7863588225,2019_may_23_1607,010,256,20,5,lierni,Experiment_EEG_version,20,
Living_Things,../experiment_stimuli/bw_bc_bl/Living_Things/Birds/toucan_19.jpg,Birds,0,toucan,0,86,86,85,313.732772265,V_nV,1,313.737929842,314.995420565,0,2,0.41096665198,315.426945799,1,1,0.0703772476409,5,6.0,32,bw,99.7863588225,2019_may_23_1607,010,256,20,5,lierni,Experiment_EEG_version,20,
Nonliving_Things,../experiment_stimuli/bw_bc_bl/Nonliving_Things/Tools/axe_25.jpg,Tools,0,axe,0,87,87,3,317.230373881,V_nV,2,317.235625137,318.513065623,0,1,0.391180642182,318.924810659,2,0,0.571462767199,5,7.0,32,bw,99.7863588225,2019_may_23_1607,010,256,20,5,lierni,Experiment_EEG_version,20,
Nonliving_Things,../experiment_stimuli/bw_bc_bl/Nonliving_Things/Buildings/house_10.jpg,Buildings,0,house,0,88,88,41,321.229071861,V_nV,2,321.234135865,322.50174009,1,2,0.451199613279,322.983517284,3,0,0.120479323203,5,6.5,32,bw,99.7863588225,2019_may_23_1607,010,256,20,5,lierni,Experiment_EEG_version,20,
Living_Things,../experiment_stimuli/bw_bc_bl/Living_Things/Animals/elephant_3.jpg,Animals,0,elephant,0,89,89,27,324.836911248,V_nV,1,324.843636742,326.089538297,1,1,0.421140137827,326.531231028,3,0,0.140590697061,5,6.0,32,bw,99.7863588225,2019_may_23_1607,010,256,20,5,lierni,Experiment_EEG_version,20,
Nonliving_Things,../experiment_stimuli/bw_bc_bl/Nonliving_Things/Buildings/mill_4.jpg,Buildings,0,mill,0,90,90,53,328.404665055,nV_V,1,328.40981912,329.637254327,1,1,0.31092745671,329.968739444,2,0,0.150549061829,5,6.0,32,bw,99.7863588225,2019_may_23_1607,010,256,20,5,lierni,Experiment_EEG_version,20,
Nonliving_Things,../experiment_stimuli/bw_bc_bl/Nonliving_Things/Furniture/lamp_14.jpg,Furniture,0,lamp,0,91,91,46,331.852162118,nV_V,1,331.857186839,333.08474654,0,2,0.270814888412,333.376116311,1,1,0.18062787177,5,7.0,32,bw,99.7863588225,2019_may_23_1607,010,256,20,5,lierni,Experiment_EEG_version,20,
Nonliving_Things,../experiment_stimuli/bw_bc_bl/Nonliving_Things/Kitchen_Uten/coking-pot_17.jpg,Kitchen_Uten,0,coking-pot,0,92,92,18,335.299672158,nV_V,1,335.304703518,336.56230624,1,1,0.371035062242,336.953896139,3,0,0.100453854771,5,6.0,32,bw,99.7863588225,2019_may_23_1607,010,256,20,5,lierni,Experiment_EEG_version,20,
Living_Things,../experiment_stimuli/bw_bc_bl/Living_Things/Animals/lynx_8.jpg,Animals,0,lynx,0,93,93,50,338.787251326,V_nV,1,338.792359528,340.029845234,1,1,0.310919573298,340.361331028,1,1,0.150539554888,5,7.5,32,bw,99.7863588225,2019_may_23_1607,010,256,20,5,lierni,Experiment_EEG_version,20,
Living_Things,../experiment_stimuli/bw_bc_bl/Living_Things/Animals/giraffe_22.jpg,Animals,0,giraffe,0,94,94,32,342.254782054,nV_V,2,342.259904875,343.527472323,1,2,0.541406542994,344.089423008,3,0,0.120481668971,5,6.0,32,bw,99.7863588225,2019_may_23_1607,010,256,20,5,lierni,Experiment_EEG_version,20,
Living_Things,../experiment_stimuli/bw_bc_bl/Living_Things/Animals/armadillo_17.jpg,Animals,0,armadillo,0,95,95,1,345.952813276,V_nV,1,345.959541627,347.185398173,1,1,0.481288870098,347.687257966,3,0,0.0303002877627,5,6.5,32,bw,99.7863588225,2019_may_23_1607,010,256,20,5,lierni,Experiment_EEG_version,20,
