category,probe_path,subcategory,fixation_duration,label,trials.thisRepN,trials.thisTrialN,trials.thisN,trials.thisIndex,image_onset_time,response_window,correctAns,probe_onset,discrim_resptime,response.corr,response.keys,response.rt,visible_resptime,visible.keys,visible.corr,visible.rt,probeFrames,jitter2,n_square,experiment_color,frameRate,date,session,image_size,premask_dur,probeFrames,participant,expName,postmask_dur,
Living_Things,../experiment_stimuli/bw_bc_bl/Living_Things/Animals/zebra_8.jpg,Animals,0,zebra,0,0,0,95,3.71459878981,V_nV,1,3.73767683562,5.00729510351,1,1,1.47342131543,6.51159301086,3,0,0.992380998097,5,6.0,32,bw,99.7809198785,2019_may_15_1618,001,256,20,5,xabier,Experiment_EEG_version,20,
Nonliving_Things,../experiment_stimuli/bw_bc_bl/Nonliving_Things/Kitchen_Uten/fondue_18.jpg,Kitchen_Uten,0,fondue,0,1,1,30,9.23657980841,nV_V,1,9.24190985237,10.4892060118,0,2,1.18279497034,11.6925478908,2,0,0.972178753582,5,6.0,32,bw,99.7809198785,2019_may_15_1618,001,256,20,5,xabier,Experiment_EEG_version,20,
Living_Things,../experiment_stimuli/bw_bc_bl/Living_Things/Birds/goldfinch_19.jpg,Birds,0,goldfinch,0,2,2,33,14.3977989707,nV_V,2,14.4032157466,15.6404072047,1,2,1.7641051152,17.4250487702,1,1,0.97234246158,5,6.0,32,bw,99.7809198785,2019_may_15_1618,001,256,20,5,xabier,Experiment_EEG_version,20,
Nonliving_Things,../experiment_stimuli/bw_bc_bl/Nonliving_Things/Musical_Inst/trumpet_22.jpg,Musical_Inst,0,trumpet,0,3,3,88,20.130258813,V_nV,2,20.135720859,21.4029317142,0,1,1.2429526241,22.6664253559,1,1,1.05250293412,5,6.0,32,bw,99.7809198785,2019_may_15_1618,001,256,20,5,xabier,Experiment_EEG_version,20,
Living_Things,../experiment_stimuli/bw_bc_bl/Living_Things/Birds/penguin_14.jpg,Birds,0,penguin,0,4,4,61,25.4518271565,nV_V,2,25.4566496252,26.7545579544,1,2,1.31308168336,28.0881920238,2,0,3.086928798,5,7.5,32,bw,99.7809198785,2019_may_15_1618,001,256,20,5,xabier,Experiment_EEG_version,20,
Living_Things,../experiment_stimuli/bw_bc_bl/Living_Things/Marine_creatures/pomfret_1.jpg,Marine_creatures,0,pomfret,0,5,5,65,32.9080303612,nV_V,2,32.9128367585,34.2007435919,1,2,2.30522769631,36.5265263169,1,1,0.73165879224,5,6.5,32,bw,99.7809198785,2019_may_15_1618,001,256,20,5,xabier,Experiment_EEG_version,20,
Nonliving_Things,../experiment_stimuli/bw_bc_bl/Nonliving_Things/Tools/hammer_7.jpg,Tools,0,hammer,0,6,6,37,38.9912512813,nV_V,1,38.9963836444,40.3040081839,0,2,1.66383908107,41.9884021812,1,1,0.831876917277,5,6.5,32,bw,99.7809198785,2019_may_15_1618,001,256,20,5,xabier,Experiment_EEG_version,20,
Nonliving_Things,../experiment_stimuli/bw_bc_bl/Nonliving_Things/Furniture/bedside-table_24.jpg,Furniture,0,bedside-table,0,7,7,6,44.5533427555,nV_V,1,44.5581608745,45.8961640883,1,1,1.46340782766,47.3801307679,3,0,1.10261487053,5,6.0,32,bw,99.7809198785,2019_may_15_1618,001,256,20,5,xabier,Experiment_EEG_version,20,
Nonliving_Things,../experiment_stimuli/bw_bc_bl/Nonliving_Things/Kitchen_Uten/coking-pot_18.jpg,Kitchen_Uten,0,coking-pot,0,8,8,18,50.2156557188,nV_V,1,50.2204545639,51.5384218801,1,1,1.18279341399,52.7417700262,3,0,1.12268109445,5,7.0,32,bw,99.7809198785,2019_may_15_1618,001,256,20,5,xabier,Experiment_EEG_version,20,
Living_Things,../experiment_stimuli/bw_bc_bl/Living_Things/Animals/giraffe_23.jpg,Animals,0,giraffe,0,9,9,32,55.597343709,V_nV,1,55.6023569907,56.8900577142,1,1,1.78411835106,58.694723786,1,1,1.04248494224,5,6.0,32,bw,99.7809198785,2019_may_15_1618,001,256,20,5,xabier,Experiment_EEG_version,20,
Nonliving_Things,../experiment_stimuli/bw_bc_bl/Nonliving_Things/Buildings/cathedral_8.jpg,Buildings,0,cathedral,0,10,10,14,61.4701097375,nV_V,1,61.475597159,62.7928853572,1,1,1.72397373116,64.5374033129,2,0,0.812000532751,5,6.5,32,bw,99.7809198785,2019_may_15_1618,001,256,20,5,xabier,Experiment_EEG_version,20,
Nonliving_Things,../experiment_stimuli/bw_bc_bl/Nonliving_Things/Tools/axe_4.jpg,Tools,0,axe,0,11,11,3,67.0823083397,V_nV,2,67.087197048,68.3950594714,1,2,1.2930383163,69.7086568277,2,0,1.09259426605,5,6.0,32,bw,99.7809198785,2019_may_15_1618,001,256,20,5,xabier,Experiment_EEG_version,20,
Nonliving_Things,../experiment_stimuli/bw_bc_bl/Nonliving_Things/Musical_Inst/drum_2.jpg,Musical_Inst,0,drum,0,12,12,25,72.5341617005,nV_V,1,72.5389663163,73.8368934458,1,1,2.11483779864,75.9722854878,3,0,1.57363959844,5,6.0,32,bw,99.7809198785,2019_may_15_1618,001,256,20,5,xabier,Experiment_EEG_version,20,
Living_Things,../experiment_stimuli/bw_bc_bl/Living_Things/Birds/rooster_14.jpg,Birds,0,rooster,0,13,13,70,79.2788210355,nV_V,2,79.283749796,80.551485181,1,2,2.38542490476,82.9574686936,1,1,0.75184510462,5,6.0,32,bw,99.7809198785,2019_may_15_1618,001,256,20,5,xabier,Experiment_EEG_version,20,
Living_Things,../experiment_stimuli/bw_bc_bl/Living_Things/Animals/lynx_0.jpg,Animals,0,lynx,0,14,14,50,85.4422124055,V_nV,1,85.4470927266,86.7449471093,1,1,1.63377795171,88.3992814053,3,0,0.541400456917,5,6.0,32,bw,99.7809198785,2019_may_15_1618,001,256,20,5,xabier,Experiment_EEG_version,20,
Living_Things,../experiment_stimuli/bw_bc_bl/Living_Things/Birds/kiwi_12.jpg,Birds,0,kiwi,0,15,15,44,90.6735835405,nV_V,2,90.6785426615,91.9562746255,1,2,3.12701728009,95.1038669908,2,0,1.00241446344,5,6.0,32,bw,99.7809198785,2019_may_15_1618,001,256,20,5,xabier,Experiment_EEG_version,20,
Living_Things,../experiment_stimuli/bw_bc_bl/Living_Things/Marine_creatures/narwhal_6.jpg,Marine_creatures,0,narwhal,0,16,16,55,97.8391822566,nV_V,2,97.8446806745,99.1118272935,1,2,1.56364194816,100.696022023,2,0,0.71176878782,5,6.0,32,bw,99.7809198785,2019_may_15_1618,001,256,20,5,xabier,Experiment_EEG_version,20,
Nonliving_Things,../experiment_stimuli/bw_bc_bl/Nonliving_Things/Furniture/rocking-chair_7.jpg,Furniture,0,rocking-chair,0,17,17,69,103.140684109,V_nV,2,103.146493274,104.403338748,1,2,1.56361748278,105.987498929,1,1,0.781916324515,5,6.5,32,bw,99.7809198785,2019_may_15_1618,001,256,20,5,xabier,Experiment_EEG_version,20,
Nonliving_Things,../experiment_stimuli/bw_bc_bl/Nonliving_Things/Vehicles/boat_14.jpg,Vehicles,0,boat,0,18,18,7,108.502337458,nV_V,1,108.508019756,109.775012036,1,1,1.66383854719,111.459405179,3,0,0.741832086467,5,6.0,32,bw,99.7809198785,2019_may_15_1618,001,256,20,5,xabier,Experiment_EEG_version,20,
Living_Things,../experiment_stimuli/bw_bc_bl/Living_Things/Birds/pigeon_23.jpg,Birds,0,pigeon,0,19,19,63,113.934141019,nV_V,2,113.938985819,115.176745227,0,1,1.34314413613,116.540462456,1,1,0.55141836952,5,7.5,32,bw,99.7809198785,2019_may_15_1618,001,256,20,5,xabier,Experiment_EEG_version,20,
Living_Things,../experiment_stimuli/bw_bc_bl/Living_Things/Marine_creatures/killer-whale_25.jpg,Marine_creatures,0,killer-whale,0,20,20,43,118.824786831,V_nV,1,118.82964945,120.097442041,1,1,1.52353571809,121.641530439,2,0,0.481258277083,5,7.5,32,bw,99.7809198785,2019_may_15_1618,001,256,20,5,xabier,Experiment_EEG_version,20,
Living_Things,../experiment_stimuli/bw_bc_bl/Living_Things/Birds/raven_0.jpg,Birds,0,raven,0,21,21,67,123.855716127,V_nV,1,123.860560073,125.118360544,1,1,1.78410271602,126.923001386,2,0,0.651632085093,5,6.0,32,bw,99.7809198785,2019_may_15_1618,001,256,20,5,xabier,Experiment_EEG_version,20,
Living_Things,../experiment_stimuli/bw_bc_bl/Living_Things/Birds/toucan_15.jpg,Birds,0,toucan,0,22,22,85,129.307557676,V_nV,1,129.31395999,130.560186669,1,1,0.972338822554,131.553080103,2,0,0.731839101529,5,8.0,32,bw,99.7809198785,2019_may_15_1618,001,256,20,5,xabier,Experiment_EEG_version,20,
Nonliving_Things,../experiment_stimuli/bw_bc_bl/Nonliving_Things/Vehicles/motorbike_24.jpg,Vehicles,0,motorbike,0,23,23,54,134.017799737,V_nV,2,134.022677438,135.260401926,1,2,1.41329021065,136.694244541,1,1,0.711764558335,5,6.5,32,bw,99.7809198785,2019_may_15_1618,001,256,20,5,xabier,Experiment_EEG_version,20,
Nonliving_Things,../experiment_stimuli/bw_bc_bl/Nonliving_Things/Buildings/mill_14.jpg,Buildings,0,mill,0,24,24,53,139.138930744,V_nV,2,139.143802644,140.391556052,0,1,1.73400333931,142.146173477,1,1,0.401086774655,5,6.0,32,bw,99.7809198785,2019_may_15_1618,001,256,20,5,xabier,Experiment_EEG_version,20,
Living_Things,../experiment_stimuli/bw_bc_bl/Living_Things/Marine_creatures/shark_9.jpg,Marine_creatures,0,shark,0,25,25,75,144.280109194,nV_V,2,144.285803011,145.552774692,1,2,2.61591541965,148.189254949,1,1,0.481261754176,5,6.5,32,bw,99.7809198785,2019_may_15_1618,001,256,20,5,xabier,Experiment_EEG_version,20,
Nonliving_Things,../experiment_stimuli/bw_bc_bl/Nonliving_Things/Musical_Inst/violin_1.jpg,Musical_Inst,0,violin,0,26,26,92,150.403421299,V_nV,2,150.408370409,151.696130222,1,2,3.72832563834,155.455021385,1,1,0.340978331049,5,6.5,32,bw,99.7809198785,2019_may_15_1618,001,256,20,5,xabier,Experiment_EEG_version,20,
Living_Things,../experiment_stimuli/bw_bc_bl/Living_Things/Animals/cow_24.jpg,Animals,0,cow,0,27,27,20,157.528904872,V_nV,1,157.533818527,158.831640854,1,1,1.23377384571,160.086006867,3,0,0.431159468135,5,6.5,32,bw,99.7809198785,2019_may_15_1618,001,256,20,5,xabier,Experiment_EEG_version,20,
Nonliving_Things,../experiment_stimuli/bw_bc_bl/Nonliving_Things/Vehicles/train_17.jpg,Vehicles,0,train,0,28,28,87,162.24916524,nV_V,1,162.254197071,163.521840382,1,1,1.38322994951,164.925605,2,0,0.320919610444,5,8.0,32,bw,99.7809198785,2019_may_15_1618,001,256,20,5,xabier,Experiment_EEG_version,20,
Living_Things,../experiment_stimuli/bw_bc_bl/Living_Things/Birds/barn-owl_11.jpg,Birds,0,barn-owl,0,29,29,4,166.979447003,V_nV,1,166.985106065,168.242093225,1,1,1.57364263991,169.836289108,1,1,0.862091653515,5,6.5,32,bw,99.7809198785,2019_may_15_1618,001,256,20,5,xabier,Experiment_EEG_version,20,
Living_Things,../experiment_stimuli/bw_bc_bl/Living_Things/Animals/tapir_3.jpg,Animals,0,tapir,0,30,30,82,172.431318022,V_nV,1,172.437207483,173.724015745,1,1,1.13268952607,174.877252237,2,0,0.34095914301,5,6.0,32,bw,99.7809198785,2019_may_15_1618,001,256,20,5,xabier,Experiment_EEG_version,20,
Nonliving_Things,../experiment_stimuli/bw_bc_bl/Nonliving_Things/Furniture/lectern_8.jpg,Furniture,0,lectern,0,31,31,47,176.951125532,nV_V,1,176.955984857,178.233819402,1,1,1.40330666944,179.657671356,2,0,0.471087933867,5,6.0,32,bw,99.7809198785,2019_may_15_1618,001,256,20,5,xabier,Experiment_EEG_version,20,
Nonliving_Things,../experiment_stimuli/bw_bc_bl/Nonliving_Things/Kitchen_Uten/pot_17.jpg,Kitchen_Uten,0,pot,0,32,32,66,181.861807233,V_nV,2,181.866794685,183.134465887,1,2,2.20500666904,185.360040381,3,0,0.721634138841,5,6.5,32,bw,99.7809198785,2019_may_15_1618,001,256,20,5,xabier,Experiment_EEG_version,20,
Nonliving_Things,../experiment_stimuli/bw_bc_bl/Nonliving_Things/Furniture/bookcase_11.jpg,Furniture,0,bookcase,0,33,33,8,187.814741918,nV_V,1,187.820704923,189.057352878,1,1,1.27299462236,190.350901739,1,1,0.300871149637,5,6.5,32,bw,99.7809198785,2019_may_15_1618,001,256,20,5,xabier,Experiment_EEG_version,20,
Living_Things,../experiment_stimuli/bw_bc_bl/Living_Things/Marine_creatures/whale_12.jpg,Marine_creatures,0,whale,0,34,34,94,192.384676413,nV_V,2,192.389563479,193.647342879,1,2,2.98679422063,196.654657757,2,0,0.471238341415,5,7.0,32,bw,99.7809198785,2019_may_15_1618,001,256,20,5,xabier,Experiment_EEG_version,20,
Living_Things,../experiment_stimuli/bw_bc_bl/Living_Things/Animals/hippopotamus_2.jpg,Animals,0,hippopotamus,0,35,35,39,198.858746319,V_nV,1,198.863621561,200.111372177,1,1,1.18281286478,201.314736232,1,1,0.320929482579,5,6.5,32,bw,99.7809198785,2019_may_15_1618,001,256,20,5,xabier,Experiment_EEG_version,20,
Living_Things,../experiment_stimuli/bw_bc_bl/Living_Things/Insects/scorpion_8.jpg,Insects,0,scorpion,0,36,36,73,203.368554311,V_nV,1,203.373456496,204.651250335,0,2,1.11264350137,205.784458993,1,1,0.43117700133,5,6.0,32,bw,99.7809198785,2019_may_15_1618,001,256,20,5,xabier,Experiment_EEG_version,20,
Living_Things,../experiment_stimuli/bw_bc_bl/Living_Things/Animals/tiger_6.jpg,Animals,0,tiger,0,37,37,84,207.948515185,nV_V,2,207.954365541,209.2612607,1,2,2.62593574601,211.907758674,3,0,0.501300951932,5,6.5,32,bw,99.7809198785,2019_may_15_1618,001,256,20,5,xabier,Experiment_EEG_version,20,
Living_Things,../experiment_stimuli/bw_bc_bl/Living_Things/Animals/cat_26.jpg,Animals,0,cat,0,38,38,13,214.14196894,V_nV,1,214.146917787,215.434680693,1,1,1.7841073625,217.239341382,2,0,0.571482323227,5,6.0,32,bw,99.7809198785,2019_may_15_1618,001,256,20,5,xabier,Experiment_EEG_version,20,
Nonliving_Things,../experiment_stimuli/bw_bc_bl/Nonliving_Things/Buildings/church_10.jpg,Buildings,0,church,0,39,39,17,219.543713759,nV_V,1,219.5486124,220.82640331,1,1,1.39325592259,222.240208247,3,0,0.461223717895,5,6.5,32,bw,99.7809198785,2019_may_15_1618,001,256,20,5,xabier,Experiment_EEG_version,20,
Nonliving_Things,../experiment_stimuli/bw_bc_bl/Nonliving_Things/Kitchen_Uten/saucepan_22.jpg,Kitchen_Uten,0,saucepan,0,40,40,71,224.434344492,V_nV,2,224.439077,225.696996597,1,2,2.54575487925,228.263306032,2,0,0.330933264107,5,6.0,32,bw,99.7809198785,2019_may_15_1618,001,256,20,5,xabier,Experiment_EEG_version,20,
Nonliving_Things,../experiment_stimuli/bw_bc_bl/Nonliving_Things/Buildings/palace_9.jpg,Buildings,0,palace,0,41,41,58,230.327157381,nV_V,1,230.332206199,231.579772855,0,2,1.31291898654,232.913266562,1,1,0.361015814706,5,6.0,32,bw,99.7809198785,2019_may_15_1618,001,256,20,5,xabier,Experiment_EEG_version,20,
Nonliving_Things,../experiment_stimuli/bw_bc_bl/Nonliving_Things/Furniture/table_13.jpg,Furniture,0,table,0,42,42,81,235.007324444,nV_V,1,235.012216757,236.269971319,1,1,1.44337836618,237.733897038,2,0,0.391067632474,5,7.0,32,bw,99.7809198785,2019_may_15_1618,001,256,20,5,xabier,Experiment_EEG_version,20,
Living_Things,../experiment_stimuli/bw_bc_bl/Living_Things/Insects/dragonfly_16.jpg,Insects,0,dragonfly,0,43,43,24,239.857870206,nV_V,2,239.862817266,241.11049365,1,2,2.01460625662,243.145670518,1,1,0.371046885499,5,7.0,32,bw,99.7809198785,2019_may_15_1618,001,256,20,5,xabier,Experiment_EEG_version,20,
Living_Things,../experiment_stimuli/bw_bc_bl/Living_Things/Marine_creatures/manatee_4.jpg,Marine_creatures,0,manatee,0,44,44,52,245.249586195,nV_V,2,245.256659515,246.532278926,1,2,1.04249228444,247.595314785,2,0,0.310895615257,5,6.0,32,bw,99.7809198785,2019_may_15_1618,001,256,20,5,xabier,Experiment_EEG_version,20,
Living_Things,../experiment_stimuli/bw_bc_bl/Living_Things/Birds/pelican_6.jpg,Birds,0,pelican,0,45,45,60,249.639127217,nV_V,2,249.644491614,250.911806607,0,1,0.822011321667,251.754371973,1,1,0.340955647291,5,6.5,32,bw,99.7809198785,2019_may_15_1618,001,256,20,5,xabier,Experiment_EEG_version,20,
Nonliving_Things,../experiment_stimuli/bw_bc_bl/Nonliving_Things/Furniture/Chest-of-drawers_1.jpg,Furniture,0,Chest-of-drawers,0,46,46,0,253.828236824,V_nV,2,253.833012974,255.130971295,1,2,2.86645619257,258.018009268,1,1,1.35318074073,5,6.5,32,bw,99.7809198785,2019_may_15_1618,001,256,20,5,xabier,Experiment_EEG_version,20,
Nonliving_Things,../experiment_stimuli/bw_bc_bl/Nonliving_Things/Vehicles/tractor_0.jpg,Vehicles,0,tractor,0,47,47,86,261.104053605,V_nV,2,261.108852623,262.416810992,1,2,2.62593941158,265.063304827,3,0,0.681710334611,5,6.0,32,bw,99.7809198785,2019_may_15_1618,001,256,20,5,xabier,Experiment_EEG_version,20,
Nonliving_Things,../experiment_stimuli/bw_bc_bl/Nonliving_Things/Musical_Inst/tuba_24.jpg,Musical_Inst,0,tuba,0,48,48,89,267.477931272,V_nV,2,267.48295287,268.760605797,1,2,1.36318431539,270.144351457,3,0,0.741831496125,5,6.0,32,bw,99.7809198785,2019_may_15_1618,001,256,20,5,xabier,Experiment_EEG_version,20,
Nonliving_Things,../experiment_stimuli/bw_bc_bl/Nonliving_Things/Musical_Inst/guitar_25.jpg,Musical_Inst,0,guitar,0,49,49,36,272.619093049,nV_V,1,272.625110132,273.871710294,1,1,1.3431425537,275.235424677,2,0,0.431173313642,5,6.0,32,bw,99.7809198785,2019_may_15_1618,001,256,20,5,xabier,Experiment_EEG_version,20,
Nonliving_Things,../experiment_stimuli/bw_bc_bl/Nonliving_Things/Buildings/castle_24.jpg,Buildings,0,castle,0,50,50,12,277.399478816,V_nV,2,277.404329822,278.642090159,1,2,1.93442842748,280.597078931,2,0,0.451045540394,5,6.0,32,bw,99.7809198785,2019_may_15_1618,001,256,20,5,xabier,Experiment_EEG_version,20,
Nonliving_Things,../experiment_stimuli/bw_bc_bl/Nonliving_Things/Kitchen_Uten/frying-pan_14.jpg,Kitchen_Uten,0,frying-pan,0,51,51,31,282.781179088,V_nV,2,282.786070236,284.013756165,1,2,1.82420261146,285.858521467,1,1,0.401088063838,5,6.0,32,bw,99.7809198785,2019_may_15_1618,001,256,20,5,xabier,Experiment_EEG_version,20,
Nonliving_Things,../experiment_stimuli/bw_bc_bl/Nonliving_Things/Buildings/factory_24.jpg,Buildings,0,factory,0,52,52,28,287.992510172,nV_V,1,287.997406162,289.235162063,0,2,2.65583970514,291.911497884,1,1,0.330941741588,5,6.0,32,bw,99.7809198785,2019_may_15_1618,001,256,20,5,xabier,Experiment_EEG_version,20,
Living_Things,../experiment_stimuli/bw_bc_bl/Living_Things/Insects/ladybird_23.jpg,Insects,0,ladybird,0,53,53,45,293.975542538,nV_V,2,293.982721349,295.248179383,0,1,2.2048597614,297.473598997,1,1,0.260781641118,5,6.5,32,bw,99.7809198785,2019_may_15_1618,001,256,20,5,xabier,Experiment_EEG_version,20,
Living_Things,../experiment_stimuli/bw_bc_bl/Living_Things/Animals/armadillo_16.jpg,Animals,0,armadillo,0,54,54,1,299.46744695,nV_V,2,299.472449122,300.770183879,1,2,2.56581184769,303.356564368,3,0,0.340968308738,5,6.0,32,bw,99.7809198785,2019_may_15_1618,001,256,20,5,xabier,Experiment_EEG_version,20,
Nonliving_Things,../experiment_stimuli/bw_bc_bl/Nonliving_Things/Kitchen_Uten/teapot_24.jpg,Kitchen_Uten,0,teapot,0,55,55,83,305.430424073,nV_V,1,305.435280666,306.703076373,1,1,1.15272496105,307.87636033,2,0,0.240736890584,5,6.0,32,bw,99.7809198785,2019_may_15_1618,001,256,20,5,xabier,Experiment_EEG_version,20,
Living_Things,../experiment_stimuli/bw_bc_bl/Living_Things/Animals/rhino_14.jpg,Animals,0,rhino,0,56,56,68,309.850022334,nV_V,2,309.854962256,311.112671063,1,2,1.18279875978,312.316034333,3,0,0.350987714133,5,6.0,32,bw,99.7809198785,2019_may_15_1618,001,256,20,5,xabier,Experiment_EEG_version,20,
Nonliving_Things,../experiment_stimuli/bw_bc_bl/Nonliving_Things/Kitchen_Uten/small-saucepan_22.jpg,Kitchen_Uten,0,small-saucepan,0,57,57,77,314.399911053,V_nV,2,314.40476813,315.632489423,1,2,1.19281400729,316.845863745,1,1,0.340956970467,5,6.0,32,bw,99.7809198785,2019_may_15_1618,001,256,20,5,xabier,Experiment_EEG_version,20,
Nonliving_Things,../experiment_stimuli/bw_bc_bl/Nonliving_Things/Furniture/armchair_26.jpg,Furniture,0,armchair,0,58,58,2,318.91973533,nV_V,1,318.925761931,320.192416287,1,1,2.27516959654,322.48814298,3,0,0.46122211637,5,6.0,32,bw,99.7809198785,2019_may_15_1618,001,256,20,5,xabier,Experiment_EEG_version,20,
Nonliving_Things,../experiment_stimuli/bw_bc_bl/Nonliving_Things/Furniture/lamp_15.jpg,Furniture,0,lamp,0,59,59,46,324.68226438,V_nV,2,324.687169006,325.914837465,1,2,2.68607145618,328.621475465,1,1,0.441023687483,5,6.5,32,bw,99.7809198785,2019_may_15_1618,001,256,20,5,xabier,Experiment_EEG_version,20,
Living_Things,../experiment_stimuli/bw_bc_bl/Living_Things/Birds/hen_23.jpg,Birds,0,hen,0,60,60,38,330.795551686,nV_V,2,330.800551381,332.04818066,1,2,2.89654927643,334.965272777,2,0,0.721782114008,5,7.0,32,bw,99.7809198785,2019_may_15_1618,001,256,20,5,xabier,Experiment_EEG_version,20,
Nonliving_Things,../experiment_stimuli/bw_bc_bl/Nonliving_Things/Furniture/couch_22.jpg,Furniture,0,couch,0,61,61,19,337.419947833,nV_V,1,337.424679702,338.662554507,1,1,0.992385851685,339.675491873,1,1,0.260786415543,5,6.5,32,bw,99.7809198785,2019_may_15_1618,001,256,20,5,xabier,Experiment_EEG_version,20,
Living_Things,../experiment_stimuli/bw_bc_bl/Living_Things/Animals/cheetah_23.jpg,Animals,0,cheetah,0,62,62,16,341.66919709,nV_V,2,341.674226455,342.911788065,0,1,0.771898324718,343.704258791,1,1,0.270816196688,5,6.5,32,bw,99.7809198785,2019_may_15_1618,001,256,20,5,xabier,Experiment_EEG_version,20,
Nonliving_Things,../experiment_stimuli/bw_bc_bl/Nonliving_Things/Kitchen_Uten/cup_7.jpg,Kitchen_Uten,0,cup,0,63,63,22,345.707969937,nV_V,1,345.714029892,346.960592058,0,2,1.58366590599,348.564821357,1,1,0.290850643069,5,6.0,32,bw,99.7809198785,2019_may_15_1618,001,256,20,5,xabier,Experiment_EEG_version,20,
Nonliving_Things,../experiment_stimuli/bw_bc_bl/Nonliving_Things/Furniture/filling-cabinet_12.jpg,Furniture,0,filling-cabinet,0,64,64,29,350.588567979,nV_V,1,350.594809307,351.881293131,1,1,1.23296042881,353.134813735,3,0,0.39106315875,5,7.5,32,bw,99.7809198785,2019_may_15_1618,001,256,20,5,xabier,Experiment_EEG_version,20,
Nonliving_Things,../experiment_stimuli/bw_bc_bl/Nonliving_Things/Buildings/house_13.jpg,Buildings,0,house,0,65,65,41,355.258726141,V_nV,2,355.263458423,356.521375978,1,2,3.00675910397,359.558703186,2,0,0.220707237604,5,6.0,32,bw,99.7809198785,2019_may_15_1618,001,256,20,5,xabier,Experiment_EEG_version,20,
Living_Things,../experiment_stimuli/bw_bc_bl/Living_Things/Birds/owl_15.jpg,Birds,0,owl,0,66,66,57,361.512315753,V_nV,1,361.51713583,362.774968154,0,2,1.06253396731,363.858076323,2,0,0.21067150915,5,6.0,32,bw,99.7809198785,2019_may_15_1618,001,256,20,5,xabier,Experiment_EEG_version,20,
Living_Things,../experiment_stimuli/bw_bc_bl/Living_Things/Marine_creatures/lobster_18.jpg,Marine_creatures,0,lobster,0,67,67,49,365.801669556,V_nV,1,365.806599504,367.044247561,0,2,0.761885607499,367.826698768,2,0,0.230720372405,5,6.5,32,bw,99.7809198785,2019_may_15_1618,001,256,20,5,xabier,Experiment_EEG_version,20,
Living_Things,../experiment_stimuli/bw_bc_bl/Living_Things/Animals/lioness_23.jpg,Animals,0,lioness,0,68,68,48,369.790317455,nV_V,2,369.795110852,371.022897261,1,2,0.391072128667,371.434530283,1,1,0.260800385266,5,6.5,32,bw,99.7809198785,2019_may_15_1618,001,256,20,5,xabier,Experiment_EEG_version,20,
Living_Things,../experiment_stimuli/bw_bc_bl/Living_Things/Insects/butterfly_26.jpg,Insects,0,butterfly,0,69,69,10,373.428219272,V_nV,1,373.432949678,374.670828968,0,2,1.16276080615,375.854146307,1,1,0.541562586208,5,6.0,32,bw,99.7809198785,2019_may_15_1618,001,256,20,5,xabier,Experiment_EEG_version,20,
Living_Things,../experiment_stimuli/bw_bc_bl/Living_Things/Birds/hummingbird_9.jpg,Birds,0,hummingbird,0,70,70,42,378.128445833,nV_V,2,378.133222047,379.381064394,0,1,1.6738571818,381.075477947,1,1,1.01243277104,5,6.0,32,bw,99.7809198785,2019_may_15_1618,001,256,20,5,xabier,Experiment_EEG_version,20,
Living_Things,../experiment_stimuli/bw_bc_bl/Living_Things/Birds/goose_25.jpg,Birds,0,goose,0,71,71,34,383.820816081,nV_V,2,383.82565176,385.11352892,1,2,1.42331463855,386.55740396,3,0,0.471236284822,5,6.0,32,bw,99.7809198785,2019_may_15_1618,001,256,20,5,xabier,Experiment_EEG_version,20,
Nonliving_Things,../experiment_stimuli/bw_bc_bl/Nonliving_Things/Musical_Inst/piano__23.jpg,Musical_Inst,0,piano,0,72,72,62,388.761555983,V_nV,2,388.766470507,390.014180341,1,2,1.63377240638,391.668513366,2,0,0.32091589272,5,7.5,32,bw,99.7809198785,2019_may_15_1618,001,256,20,5,xabier,Experiment_EEG_version,20,
Nonliving_Things,../experiment_stimuli/bw_bc_bl/Nonliving_Things/Vehicles/plane_24.jpg,Vehicles,0,plane,0,73,73,64,393.722333295,nV_V,1,393.727121749,394.96494013,1,1,0.952295121155,395.937777799,1,1,0.270897747949,5,6.0,32,bw,99.7809198785,2019_may_15_1618,001,256,20,5,xabier,Experiment_EEG_version,20,
Nonliving_Things,../experiment_stimuli/bw_bc_bl/Nonliving_Things/Furniture/wardrobe_22.jpg,Furniture,0,wardrobe,0,74,74,93,397.941531798,V_nV,2,397.9477326,399.204159741,1,2,1.91440336476,401.139128838,2,0,1.16274761094,5,6.0,32,bw,99.7809198785,2019_may_15_1618,001,256,20,5,xabier,Experiment_EEG_version,20,
Living_Things,../experiment_stimuli/bw_bc_bl/Living_Things/Animals/turtle_20.jpg,Animals,0,turtle,0,75,75,90,404.034756041,V_nV,1,404.039639573,405.287386372,0,2,1.17276453867,406.480716244,1,1,0.320934644318,5,6.5,32,bw,99.7809198785,2019_may_15_1618,001,256,20,5,xabier,Experiment_EEG_version,20,
Nonliving_Things,../experiment_stimuli/bw_bc_bl/Nonliving_Things/Furniture/chair_12.jpg,Furniture,0,chair,0,76,76,15,408.53453288,nV_V,1,408.539399945,409.80720801,1,1,0.822041572887,410.649813894,1,1,0.31090722396,5,6.0,32,bw,99.7809198785,2019_may_15_1618,001,256,20,5,xabier,Experiment_EEG_version,20,
Living_Things,../experiment_stimuli/bw_bc_bl/Living_Things/Animals/horse_14.jpg,Animals,0,horse,0,77,77,40,412.693578349,nV_V,2,412.698375319,413.976275645,1,2,2.67606360349,416.672879833,3,0,0.461238702643,5,6.5,32,bw,99.7809198785,2019_may_15_1618,001,256,20,5,xabier,Experiment_EEG_version,20,
Living_Things,../experiment_stimuli/bw_bc_bl/Living_Things/Marine_creatures/crab_8.jpg,Marine_creatures,0,crab,0,78,78,21,418.877035755,V_nV,1,418.883414642,420.129644076,0,2,1.53355012345,421.68374783,1,1,0.310887408676,5,6.0,32,bw,99.7809198785,2019_may_15_1618,001,256,20,5,xabier,Experiment_EEG_version,20,
Living_Things,../experiment_stimuli/bw_bc_bl/Living_Things/Birds/seagull_0.jpg,Birds,0,seagull,0,79,79,74,423.727561687,V_nV,1,423.732349017,425.020282752,0,2,1.11266170058,426.153487929,2,0,0.280829771073,5,6.0,32,bw,99.7809198785,2019_may_15_1618,001,256,20,5,xabier,Experiment_EEG_version,20,
Nonliving_Things,../experiment_stimuli/bw_bc_bl/Nonliving_Things/Furniture/sofa_6.jpg,Furniture,0,sofa,0,80,80,78,428.16721545,nV_V,1,428.171979416,429.439882795,1,1,2.90660383168,432.367036332,2,0,0.471260077902,5,7.0,32,bw,99.7809198785,2019_may_15_1618,001,256,20,5,xabier,Experiment_EEG_version,20,
Nonliving_Things,../experiment_stimuli/bw_bc_bl/Nonliving_Things/Buildings/granary_23.jpg,Buildings,0,granary,0,81,81,35,434.571135763,nV_V,1,434.576035031,435.843804747,1,1,2.02465136873,437.889029618,2,0,0.41131892486,5,6.5,32,bw,99.7809198785,2019_may_15_1618,001,256,20,5,xabier,Experiment_EEG_version,20,
Living_Things,../experiment_stimuli/bw_bc_bl/Living_Things/Birds/partridge_10.jpg,Birds,0,partridge,0,82,82,59,440.033004883,V_nV,1,440.037858802,441.285633759,0,2,1.19282097719,442.499010626,2,0,0.310744493036,5,6.0,32,bw,99.7809198785,2019_may_15_1618,001,256,20,5,xabier,Experiment_EEG_version,20,
Nonliving_Things,../experiment_stimuli/bw_bc_bl/Nonliving_Things/Vehicles/bus_9.jpg,Vehicles,0,bus,0,83,83,9,444.542807262,V_nV,2,444.5492092,445.79544033,1,2,0.741842154064,446.557836681,2,0,0.250769566512,5,6.5,32,bw,99.7809198785,2019_may_15_1618,001,256,20,5,xabier,Experiment_EEG_version,20,
Living_Things,../experiment_stimuli/bw_bc_bl/Living_Things/Birds/duck_5.jpg,Birds,0,duck,0,84,84,26,448.541497817,V_nV,1,448.546346124,449.77408665,0,2,1.42332060833,451.217995268,1,1,0.270805166801,5,8.0,32,bw,99.7809198785,2019_may_15_1618,001,256,20,5,xabier,Experiment_EEG_version,20,
Nonliving_Things,../experiment_stimuli/bw_bc_bl/Nonliving_Things/Musical_Inst/saxophone_17.jpg,Musical_Inst,0,saxophone,0,85,85,72,453.221681914,nV_V,1,453.22652912,454.484322538,1,1,0.791948116734,455.296833165,1,1,0.300874315086,5,6.0,32,bw,99.7809198785,2019_may_15_1618,001,256,20,5,xabier,Experiment_EEG_version,20,
Living_Things,../experiment_stimuli/bw_bc_bl/Living_Things/Marine_creatures/dolphin_0.jpg,Marine_creatures,0,dolphin,0,86,86,23,457.34066909,V_nV,1,457.345509998,458.613299378,1,1,0.451231582789,459.085072596,1,1,1.45337410632,5,6.0,32,bw,99.7809198785,2019_may_15_1618,001,256,20,5,xabier,Experiment_EEG_version,20,
Living_Things,../experiment_stimuli/bw_bc_bl/Living_Things/Animals/elephant_0.jpg,Animals,0,elephant,0,87,87,27,462.271363452,V_nV,1,462.276142557,463.574127479,1,1,1.06238050305,464.657014406,3,0,0.511179220513,5,6.0,32,bw,99.7809198785,2019_may_15_1618,001,256,20,5,xabier,Experiment_EEG_version,20,
Living_Things,../experiment_stimuli/bw_bc_bl/Living_Things/Birds/magpie_4.jpg,Birds,0,magpie,0,88,88,51,466.901417932,V_nV,1,466.906310569,468.194126257,1,1,1.54358363047,469.758263364,2,0,0.922238397179,5,6.5,32,bw,99.7809198785,2019_may_15_1618,001,256,20,5,xabier,Experiment_EEG_version,20,
Living_Things,../experiment_stimuli/bw_bc_bl/Living_Things/Birds/ostrich_6.jpg,Birds,0,ostrich,0,89,89,56,472.413396364,V_nV,1,472.418171022,473.6960884,1,1,1.53340066702,475.250044991,2,0,0.411115341354,5,7.0,32,bw,99.7809198785,2019_may_15_1618,001,256,20,5,xabier,Experiment_EEG_version,20,
Nonliving_Things,../experiment_stimuli/bw_bc_bl/Nonliving_Things/Vehicles/ship_13.jpg,Vehicles,0,ship,0,90,90,76,477.3942279,nV_V,1,477.398980881,478.65687352,1,1,1.67386868177,480.351290122,1,1,0.310894731549,5,7.0,32,bw,99.7809198785,2019_may_15_1618,001,256,20,5,xabier,Experiment_EEG_version,20,
Nonliving_Things,../experiment_stimuli/bw_bc_bl/Nonliving_Things/Furniture/bed_1.jpg,Furniture,0,bed,0,91,91,5,482.395099464,V_nV,2,482.399864163,483.697827254,1,2,2.35534421168,486.073723337,2,0,0.280826290022,5,7.5,32,bw,99.7809198785,2019_may_15_1618,001,256,20,5,xabier,Experiment_EEG_version,20,
Nonliving_Things,../experiment_stimuli/bw_bc_bl/Nonliving_Things/Vehicles/car_11.jpg,Vehicles,0,car,0,92,92,11,488.087472294,nV_V,1,488.092305191,489.370160269,1,1,0.932250896818,490.322957132,3,0,0.40108749643,5,6.5,32,bw,99.7809198785,2019_may_15_1618,001,256,20,5,xabier,Experiment_EEG_version,20,
Living_Things,../experiment_stimuli/bw_bc_bl/Living_Things/Marine_creatures/sperm-whale_4.jpg,Marine_creatures,0,sperm-whale,0,93,93,80,492.466992226,nV_V,2,492.471721941,493.729636005,1,2,2.07474193664,495.824924606,2,0,0.260779956938,5,6.5,32,bw,99.7809198785,2019_may_15_1618,001,256,20,5,xabier,Experiment_EEG_version,20,
Nonliving_Things,../experiment_stimuli/bw_bc_bl/Nonliving_Things/Vehicles/van_4.jpg,Vehicles,0,van,0,94,94,91,497.818626294,V_nV,2,497.823438014,499.081275451,1,2,1.62381178222,500.725625398,2,0,0.340957270935,5,6.0,32,bw,99.7809198785,2019_may_15_1618,001,256,20,5,xabier,Experiment_EEG_version,20,
Living_Things,../experiment_stimuli/bw_bc_bl/Living_Things/Birds/sparrow_26.jpg,Birds,0,sparrow,0,95,95,79,502.809480723,V_nV,1,502.815962123,504.062095442,1,1,2.88649740536,506.969149244,1,1,0.461237228941,5,7.5,32,bw,99.7809198785,2019_may_15_1618,001,256,20,5,xabier,Experiment_EEG_version,20,
