category,probe_path,subcategory,fixation_duration,label,trials.thisRepN,trials.thisTrialN,trials.thisN,trials.thisIndex,image_onset_time,response_window,correctAns,probe_onset,discrim_resptime,response.corr,response.keys,response.rt,visible_resptime,visible.keys,visible.corr,visible.rt,probeFrames,jitter2,n_square,experiment_color,frameRate,date,session,image_size,premask_dur,probeFrames,participant,expName,postmask_dur,
Living_Things,../experiment_stimuli/bw_bc_bl/Living_Things/Birds/barn-owl_3.jpg,Birds,0,barn-owl,0,0,0,4,3.71725365811,nV_V,2,3.73940889712,4.9999496825,1,2,0.410954990657,5.44175681379,2,0,0.190626021824,5,6.0,32,bw,99.7846743243,2019_may_20_1639,016,256,20,5,xabi,Experiment_EEG_version,20,
Living_Things,../experiment_stimuli/bw_bc_bl/Living_Things/Birds/hummingbird_16.jpg,Birds,0,hummingbird,0,1,1,42,7.36518568487,nV_V,2,7.37056112266,8.62783238734,0,1,0.411132705864,9.05951972771,1,1,0.200668253936,5,6.0,32,bw,99.7846743243,2019_may_20_1639,016,256,20,5,xabi,Experiment_EEG_version,20,
Nonliving_Things,../experiment_stimuli/bw_bc_bl/Nonliving_Things/Musical_Inst/violin_8.jpg,Musical_Inst,0,violin,0,2,2,92,10.9930675927,V_nV,2,10.9979722102,12.2657344224,1,2,0.601557930117,12.8878544414,2,0,0.200669957092,5,6.0,32,bw,99.7846743243,2019_may_20_1639,016,256,20,5,xabi,Experiment_EEG_version,20,
Nonliving_Things,../experiment_stimuli/bw_bc_bl/Nonliving_Things/Musical_Inst/drum_14.jpg,Musical_Inst,0,drum,0,3,3,25,14.8213886375,nV_V,1,14.8263031421,16.0840362086,1,1,0.691732187523,16.7963099476,2,0,0.200654603541,5,6.0,32,bw,99.7846743243,2019_may_20_1639,016,256,20,5,xabi,Experiment_EEG_version,20,
Nonliving_Things,../experiment_stimuli/bw_bc_bl/Nonliving_Things/Musical_Inst/trumpet_10.jpg,Musical_Inst,0,trumpet,0,4,4,88,18.7299002593,V_nV,2,18.7358389035,19.9825062337,0,1,1.27299094177,21.276046603,1,1,0.220695662429,5,6.0,32,bw,99.7846743243,2019_may_20_1639,016,256,20,5,xabi,Experiment_EEG_version,20,
Living_Things,../experiment_stimuli/bw_bc_bl/Living_Things/Birds/sparrow_17.jpg,Birds,0,sparrow,0,5,5,79,23.2296601468,nV_V,2,23.2346050458,24.5023355517,1,2,0.962315285811,25.4851929042,2,0,0.180630593561,5,6.0,32,bw,99.7846743243,2019_may_20_1639,016,256,20,5,xabi,Experiment_EEG_version,20,
Nonliving_Things,../experiment_stimuli/bw_bc_bl/Nonliving_Things/Buildings/cathedral_23.jpg,Buildings,0,cathedral,0,6,6,14,27.3987266649,nV_V,1,27.4035401638,28.6613736911,1,1,0.471243337728,29.1531782603,1,1,0.22069283179,5,7.0,32,bw,99.7846743243,2019_may_20_1639,016,256,20,5,xabi,Experiment_EEG_version,20,
Living_Things,../experiment_stimuli/bw_bc_bl/Living_Things/Animals/zebra_20.jpg,Animals,0,zebra,0,7,7,95,31.1067857142,nV_V,2,31.111794665,32.379459292,1,2,1.41329911642,33.8133083322,3,0,0.431159163476,5,6.0,32,bw,99.7846743243,2019_may_20_1639,016,256,20,5,xabi,Experiment_EEG_version,20,
Nonliving_Things,../experiment_stimuli/bw_bc_bl/Nonliving_Things/Furniture/sofa_1.jpg,Furniture,0,sofa,0,8,8,78,35.9773730086,V_nV,2,35.9821698462,37.2299983549,1,2,0.932251588674,38.1828111943,1,1,0.22069589945,5,6.0,32,bw,99.7846743243,2019_may_20_1639,016,256,20,5,xabi,Experiment_EEG_version,20,
Living_Things,../experiment_stimuli/bw_bc_bl/Living_Things/Marine_creatures/lobster_24.jpg,Marine_creatures,0,lobster,0,9,9,49,40.1364155015,nV_V,2,40.1413469381,41.3990671813,1,2,0.67169998528,42.0913138277,1,1,0.200670460472,5,6.0,32,bw,99.7846743243,2019_may_20_1639,016,256,20,5,xabi,Experiment_EEG_version,20,
Living_Things,../experiment_stimuli/bw_bc_bl/Living_Things/Animals/cow_3.jpg,Animals,0,cow,0,10,10,20,44.0248658691,V_nV,1,44.0298209524,45.2975378721,1,1,0.681707639014,45.9998212765,1,1,0.210690960055,5,6.5,32,bw,99.7846743243,2019_may_20_1639,016,256,20,5,xabi,Experiment_EEG_version,20,
Living_Things,../experiment_stimuli/bw_bc_bl/Living_Things/Birds/toucan_0.jpg,Birds,0,toucan,0,11,11,85,47.9433936671,nV_V,2,47.9495098466,49.2260783161,1,2,0.521356807905,49.7679737434,1,1,0.180628364091,5,6.5,32,bw,99.7846743243,2019_may_20_1639,016,256,20,5,xabi,Experiment_EEG_version,20,
Nonliving_Things,../experiment_stimuli/bw_bc_bl/Nonliving_Things/Musical_Inst/tuba_19.jpg,Musical_Inst,0,tuba,0,12,12,89,51.681511297,V_nV,2,51.686469226,52.9842457301,1,2,0.45105454023,53.4558651412,3,0,0.190641980153,5,6.5,32,bw,99.7846743243,2019_may_20_1639,016,256,20,5,xabi,Experiment_EEG_version,20,
Living_Things,../experiment_stimuli/bw_bc_bl/Living_Things/Birds/kiwi_5.jpg,Birds,0,kiwi,0,13,13,44,55.3795530086,nV_V,2,55.3843474361,56.652216301,1,2,0.651641133591,57.3244013058,1,1,0.180609157775,5,6.0,32,bw,99.7846743243,2019_may_20_1639,016,256,20,5,xabi,Experiment_EEG_version,20,
Living_Things,../experiment_stimuli/bw_bc_bl/Living_Things/Birds/pelican_10.jpg,Birds,0,pelican,0,14,14,60,59.2379339422,V_nV,1,59.2428840783,60.52062467,1,1,0.751863367506,61.2930344614,1,1,0.230712744524,5,7.5,32,bw,99.7846743243,2019_may_20_1639,016,256,20,5,xabi,Experiment_EEG_version,20,
Living_Things,../experiment_stimuli/bw_bc_bl/Living_Things/Animals/cheetah_4.jpg,Animals,0,cheetah,0,15,15,16,63.2566677789,nV_V,2,63.2616390048,64.5493837504,1,2,1.27299391164,65.8429607993,2,0,0.290867364616,5,6.0,32,bw,99.7846743243,2019_may_20_1639,016,256,20,5,xabi,Experiment_EEG_version,20,
Living_Things,../experiment_stimuli/bw_bc_bl/Living_Things/Birds/ostrich_2.jpg,Birds,0,ostrich,0,16,16,56,67.8666911323,nV_V,2,67.8716464788,69.1493804203,1,2,0.671681534848,69.8416294196,2,0,0.240852302522,5,6.0,32,bw,99.7846743243,2019_may_20_1639,016,256,20,5,xabi,Experiment_EEG_version,20,
Nonliving_Things,../experiment_stimuli/bw_bc_bl/Nonliving_Things/Kitchen_Uten/saucepan_15.jpg,Kitchen_Uten,0,saucepan,0,17,17,71,71.81527194,nV_V,1,71.8200945701,73.0879434989,0,2,0.932254720363,74.0407653156,3,0,0.280824429356,5,7.5,32,bw,99.7846743243,2019_may_20_1639,016,256,20,5,xabi,Experiment_EEG_version,20,
Living_Things,../experiment_stimuli/bw_bc_bl/Living_Things/Animals/armadillo_24.jpg,Animals,0,armadillo,0,18,18,1,76.0544914571,V_nV,1,76.0601937738,77.2971014919,1,1,0.571472161449,77.8891402121,1,1,0.200652896892,5,7.0,32,bw,99.7846743243,2019_may_20_1639,016,256,20,5,xabi,Experiment_EEG_version,20,
Living_Things,../experiment_stimuli/bw_bc_bl/Living_Things/Insects/dragonfly_8.jpg,Insects,0,dragonfly,0,19,19,24,79.8226873368,nV_V,2,79.8275827854,81.085332111,1,2,0.621574718505,81.7274526026,2,0,0.2006742839,5,7.5,32,bw,99.7846743243,2019_may_20_1639,016,256,20,5,xabi,Experiment_EEG_version,20,
Living_Things,../experiment_stimuli/bw_bc_bl/Living_Things/Animals/tapir_8.jpg,Animals,0,tapir,0,20,20,82,83.6610329634,nV_V,2,83.6659355699,84.9136533963,1,2,0.481276039733,85.4154855928,1,1,0.220695076394,5,8.0,32,bw,99.7846743243,2019_may_20_1639,016,256,20,5,xabi,Experiment_EEG_version,20,
Living_Things,../experiment_stimuli/bw_bc_bl/Living_Things/Birds/pigeon_11.jpg,Birds,0,pigeon,0,21,21,63,87.3690948809,V_nV,1,87.3747072405,88.6417552073,1,1,2.30523577495,90.9675642325,2,0,0.320935136639,5,6.5,32,bw,99.7846743243,2019_may_20_1639,016,256,20,5,xabi,Experiment_EEG_version,20,
Living_Things,../experiment_stimuli/bw_bc_bl/Living_Things/Animals/cat_5.jpg,Animals,0,cat,0,22,22,13,93.0213752023,nV_V,2,93.0271173306,94.2840236456,1,2,0.521359101171,94.8259293849,1,1,0.200658682617,5,6.0,32,bw,99.7846743243,2019_may_20_1639,016,256,20,5,xabi,Experiment_EEG_version,20,
Nonliving_Things,../experiment_stimuli/bw_bc_bl/Nonliving_Things/Vehicles/van_14.jpg,Vehicles,0,van,0,23,23,91,96.7595006556,V_nV,2,96.7645904885,98.0421899998,1,2,0.431165264687,98.4938994966,3,0,0.170600635814,5,6.0,32,bw,99.7846743243,2019_may_20_1639,016,256,20,5,xabi,Experiment_EEG_version,20,
Nonliving_Things,../experiment_stimuli/bw_bc_bl/Nonliving_Things/Buildings/castle_8.jpg,Buildings,0,castle,0,24,24,12,100.397411164,V_nV,2,100.402364901,101.650032725,1,2,0.781938831555,102.462577411,1,1,0.250756201916,5,6.0,32,bw,99.7846743243,2019_may_20_1639,016,256,20,5,xabi,Experiment_EEG_version,20,
Living_Things,../experiment_stimuli/bw_bc_bl/Living_Things/Animals/rhino_25.jpg,Animals,0,rhino,0,25,25,68,104.446207683,nV_V,2,104.452040445,105.70885557,1,2,0.66166507639,106.391103942,1,1,0.160563087557,5,6.5,32,bw,99.7846743243,2019_may_20_1639,016,256,20,5,xabi,Experiment_EEG_version,20,
Nonliving_Things,../experiment_stimuli/bw_bc_bl/Nonliving_Things/Furniture/armchair_10.jpg,Furniture,0,armchair,0,26,26,2,108.284572768,V_nV,2,108.28939738,109.557218809,1,2,0.411125529441,109.998925592,2,0,0.200646517333,5,8.0,32,bw,99.7846743243,2019_may_20_1639,016,256,20,5,xabi,Experiment_EEG_version,20,
Living_Things,../experiment_stimuli/bw_bc_bl/Living_Things/Animals/lioness_17.jpg,Animals,0,lioness,0,27,27,48,111.932484705,nV_V,2,111.937386138,113.19513128,1,2,0.591515694046,113.807202909,1,1,0.150547776371,5,6.0,32,bw,99.7846743243,2019_may_20_1639,016,256,20,5,xabi,Experiment_EEG_version,20,
Nonliving_Things,../experiment_stimuli/bw_bc_bl/Nonliving_Things/Vehicles/train_3.jpg,Vehicles,0,train,0,28,28,87,115.690678927,V_nV,2,115.696449525,116.983369444,1,2,0.741840270464,117.74575086,2,0,0.210674839909,5,6.0,32,bw,99.7846743243,2019_may_20_1639,016,256,20,5,xabi,Experiment_EEG_version,20,
Living_Things,../experiment_stimuli/bw_bc_bl/Living_Things/Marine_creatures/pomfret_17.jpg,Marine_creatures,0,pomfret,0,29,29,65,119.689346498,nV_V,2,119.695040315,120.972041951,1,2,0.661663772073,121.654266659,1,1,0.180611202843,5,6.0,32,bw,99.7846743243,2019_may_20_1639,016,256,20,5,xabi,Experiment_EEG_version,20,
Living_Things,../experiment_stimuli/bw_bc_bl/Living_Things/Animals/lynx_17.jpg,Animals,0,lynx,0,30,30,50,123.567778634,nV_V,2,123.572740627,124.880539431,1,2,0.501332222251,125.402436205,2,0,0.210675659589,5,7.0,32,bw,99.7846743243,2019_may_20_1639,016,256,20,5,xabi,Experiment_EEG_version,20,
Living_Things,../experiment_stimuli/bw_bc_bl/Living_Things/Animals/turtle_8.jpg,Animals,0,turtle,0,31,31,90,127.345995565,nV_V,2,127.350955047,128.648721487,1,2,1.04249123542,129.711759312,1,1,0.250758006354,5,6.0,32,bw,99.7846743243,2019_may_20_1639,016,256,20,5,xabi,Experiment_EEG_version,20,
Living_Things,../experiment_stimuli/bw_bc_bl/Living_Things/Animals/tiger_3.jpg,Animals,0,tiger,0,32,32,84,131.695450376,nV_V,2,131.701323499,133.018221575,1,2,0.350996815367,133.389780389,2,0,0.200504015782,5,6.0,32,bw,99.7846743243,2019_may_20_1639,016,256,20,5,xabi,Experiment_EEG_version,20,
Living_Things,../experiment_stimuli/bw_bc_bl/Living_Things/Birds/hen_26.jpg,Birds,0,hen,0,33,33,38,135.32333022,nV_V,2,135.328131734,136.636085607,1,2,0.421139735496,137.077778045,3,0,0.180608702707,5,6.0,32,bw,99.7846743243,2019_may_20_1639,016,256,20,5,xabi,Experiment_EEG_version,20,
Nonliving_Things,../experiment_stimuli/bw_bc_bl/Nonliving_Things/Kitchen_Uten/coking-pot_0.jpg,Kitchen_Uten,0,coking-pot,0,34,34,18,138.991307358,V_nV,2,138.996144398,140.284019394,1,2,0.44119593699,140.745791987,3,0,0.170589433052,5,6.5,32,bw,99.7846743243,2019_may_20_1639,016,256,20,5,xabi,Experiment_EEG_version,20,
Nonliving_Things,../experiment_stimuli/bw_bc_bl/Nonliving_Things/Vehicles/motorbike_11.jpg,Vehicles,0,motorbike,0,35,35,54,142.649254531,V_nV,2,142.655156988,143.91190858,1,2,0.691726789111,144.624205104,3,0,0.210681271972,5,6.0,32,bw,99.7846743243,2019_may_20_1639,016,256,20,5,xabi,Experiment_EEG_version,20,
Living_Things,../experiment_stimuli/bw_bc_bl/Living_Things/Animals/horse_17.jpg,Animals,0,horse,0,36,36,40,146.567775356,nV_V,2,146.572782806,147.800357203,1,2,0.491288851132,148.312197031,1,1,0.230567164021,5,7.5,32,bw,99.7846743243,2019_may_20_1639,016,256,20,5,xabi,Experiment_EEG_version,20,
Living_Things,../experiment_stimuli/bw_bc_bl/Living_Things/Marine_creatures/whale_4.jpg,Marine_creatures,0,whale,0,37,37,94,150.275840416,V_nV,1,150.281664851,151.528465123,1,1,0.741850078455,152.290864295,1,1,0.220543360221,5,7.5,32,bw,99.7846743243,2019_may_20_1639,016,256,20,5,xabi,Experiment_EEG_version,20,
Living_Things,../experiment_stimuli/bw_bc_bl/Living_Things/Birds/raven_20.jpg,Birds,0,raven,0,38,38,67,154.244465673,nV_V,2,154.251426254,155.507112872,1,2,0.651645983336,156.179303264,2,0,0.190652340767,5,6.0,32,bw,99.7846743243,2019_may_20_1639,016,256,20,5,xabi,Experiment_EEG_version,20,
Nonliving_Things,../experiment_stimuli/bw_bc_bl/Nonliving_Things/Furniture/chair_18.jpg,Furniture,0,chair,0,39,39,15,158.102847321,nV_V,1,158.107896279,159.355478972,1,1,1.39326241484,160.77930134,2,0,0.21070319647,5,6.5,32,bw,99.7846743243,2019_may_20_1639,016,256,20,5,xabi,Experiment_EEG_version,20,
Nonliving_Things,../experiment_stimuli/bw_bc_bl/Nonliving_Things/Furniture/bookcase_22.jpg,Furniture,0,bookcase,0,40,40,8,162.722895753,nV_V,1,162.727765119,163.965501532,1,1,0.551421286887,164.537470288,1,1,0.170585496817,5,6.5,32,bw,99.7846743243,2019_may_20_1639,016,256,20,5,xabi,Experiment_EEG_version,20,
Living_Things,../experiment_stimuli/bw_bc_bl/Living_Things/Insects/butterfly_24.jpg,Insects,0,butterfly,0,41,41,10,166.440994711,V_nV,1,166.445821604,167.713641864,1,1,0.601532663335,168.335737733,3,0,0.200651852065,5,7.5,32,bw,99.7846743243,2019_may_20_1639,016,256,20,5,xabi,Experiment_EEG_version,20,
Nonliving_Things,../experiment_stimuli/bw_bc_bl/Nonliving_Things/Furniture/Chest-of-drawers_23.jpg,Furniture,0,Chest-of-drawers,0,42,42,0,170.269307275,nV_V,1,170.274230024,171.521921613,0,2,1.53355691291,173.076039743,1,1,0.150539498194,5,6.0,32,bw,99.7846743243,2019_may_20_1639,016,256,20,5,xabi,Experiment_EEG_version,20,
Nonliving_Things,../experiment_stimuli/bw_bc_bl/Nonliving_Things/Kitchen_Uten/pot_1.jpg,Kitchen_Uten,0,pot,0,43,43,66,174.959494841,V_nV,2,174.966424253,176.24218461,1,2,1.40328204574,177.666018045,3,0,0.200660799281,5,6.0,32,bw,99.7846743243,2019_may_20_1639,016,256,20,5,xabi,Experiment_EEG_version,20,
Living_Things,../experiment_stimuli/bw_bc_bl/Living_Things/Birds/duck_15.jpg,Birds,0,duck,0,44,44,26,179.59958073,V_nV,1,179.605531904,180.8522077,0,2,0.701752510155,181.574523694,1,1,0.210672535235,5,6.0,32,bw,99.7846743243,2019_may_20_1639,016,256,20,5,xabi,Experiment_EEG_version,20,
Nonliving_Things,../experiment_stimuli/bw_bc_bl/Nonliving_Things/Buildings/church_22.jpg,Buildings,0,church,0,45,45,17,183.518109949,V_nV,2,183.523024311,184.800790853,1,2,0.411113104783,185.232459716,3,0,0.170589910238,5,6.0,32,bw,99.7846743243,2019_may_20_1639,016,256,20,5,xabi,Experiment_EEG_version,20,
Nonliving_Things,../experiment_stimuli/bw_bc_bl/Nonliving_Things/Vehicles/bus_21.jpg,Vehicles,0,bus,0,46,46,9,187.135968545,V_nV,2,187.140851641,188.398613361,1,2,0.461241965764,188.880437821,3,0,0.190645672032,5,6.0,32,bw,99.7846743243,2019_may_20_1639,016,256,20,5,xabi,Experiment_EEG_version,20,
Nonliving_Things,../experiment_stimuli/bw_bc_bl/Nonliving_Things/Furniture/couch_8.jpg,Furniture,0,couch,0,47,47,19,190.803939529,nV_V,1,190.81092776,192.036522445,0,2,0.671692011878,192.728787237,1,1,0.230722605367,5,6.5,32,bw,99.7846743243,2019_may_20_1639,016,256,20,5,xabi,Experiment_EEG_version,20,
Nonliving_Things,../experiment_stimuli/bw_bc_bl/Nonliving_Things/Vehicles/ship_15.jpg,Vehicles,0,ship,0,48,48,76,194.692390608,nV_V,1,194.697278327,195.955041201,1,1,1.303049376,197.278683437,2,0,0.270814595278,5,6.5,32,bw,99.7846743243,2019_may_20_1639,016,256,20,5,xabi,Experiment_EEG_version,20,
Living_Things,../experiment_stimuli/bw_bc_bl/Living_Things/Marine_creatures/manatee_0.jpg,Marine_creatures,0,manatee,0,49,49,52,199.282377801,V_nV,1,199.287175807,200.534996794,1,1,0.661659666919,201.217229241,1,1,0.190629303921,5,6.5,32,bw,99.7846743243,2019_may_20_1639,016,256,20,5,xabi,Experiment_EEG_version,20,
Living_Things,../experiment_stimuli/bw_bc_bl/Living_Things/Animals/hippopotamus_15.jpg,Animals,0,hippopotamus,0,50,50,39,203.140761126,nV_V,2,203.146834768,204.40341146,1,2,0.681709075347,205.105673981,1,1,0.180611221818,5,6.0,32,bw,99.7846743243,2019_may_20_1639,016,256,20,5,xabi,Experiment_EEG_version,20,
Nonliving_Things,../experiment_stimuli/bw_bc_bl/Nonliving_Things/Furniture/lamp_19.jpg,Furniture,0,lamp,0,51,51,46,207.019193821,nV_V,1,207.02406362,208.301879218,1,1,0.651645464473,208.974070727,3,0,0.230707699899,5,7.0,32,bw,99.7846743243,2019_may_20_1639,016,256,20,5,xabi,Experiment_EEG_version,20,
Nonliving_Things,../experiment_stimuli/bw_bc_bl/Nonliving_Things/Furniture/lectern_23.jpg,Furniture,0,lectern,0,52,52,47,210.937717916,nV_V,1,210.942547535,212.200360604,1,1,1.05251567834,213.27341268,2,0,0.150544253876,5,6.0,32,bw,99.7846743243,2019_may_20_1639,016,256,20,5,xabi,Experiment_EEG_version,20,
Nonliving_Things,../experiment_stimuli/bw_bc_bl/Nonliving_Things/Vehicles/plane_20.jpg,Vehicles,0,plane,0,53,53,64,215.156881518,V_nV,2,215.162804971,216.409505958,1,2,0.471257074387,216.901327524,1,1,0.0904664148111,5,6.0,32,bw,99.7846743243,2019_may_20_1639,016,256,20,5,xabi,Experiment_EEG_version,20,
Nonliving_Things,../experiment_stimuli/bw_bc_bl/Nonliving_Things/Kitchen_Uten/teapot_25.jpg,Kitchen_Uten,0,teapot,0,54,54,83,218.724639253,nV_V,1,218.730658009,219.99730288,1,1,0.491300414898,220.509153504,2,0,0.180611841963,5,7.5,32,bw,99.7846743243,2019_may_20_1639,016,256,20,5,xabi,Experiment_EEG_version,20,
Living_Things,../experiment_stimuli/bw_bc_bl/Living_Things/Marine_creatures/crab_0.jpg,Marine_creatures,0,crab,0,55,55,21,222.422678103,nV_V,2,222.427636837,223.685320881,1,2,0.461225405568,224.167096279,1,1,0.170434728032,5,6.5,32,bw,99.7846743243,2019_may_20_1639,016,256,20,5,xabi,Experiment_EEG_version,20,
Nonliving_Things,../experiment_stimuli/bw_bc_bl/Nonliving_Things/Vehicles/tractor_14.jpg,Vehicles,0,tractor,0,56,56,86,226.070610096,V_nV,2,226.075471771,227.353305967,1,2,0.681706766831,228.055568439,3,0,0.180611586315,5,6.5,32,bw,99.7846743243,2019_may_20_1639,016,256,20,5,xabi,Experiment_EEG_version,20,
Living_Things,../experiment_stimuli/bw_bc_bl/Living_Things/Animals/giraffe_17.jpg,Animals,0,giraffe,0,57,57,32,229.969099301,V_nV,1,229.974027521,231.221708776,1,1,0.701758607407,231.944013604,1,1,0.220696715405,5,6.0,32,bw,99.7846743243,2019_may_20_1639,016,256,20,5,xabi,Experiment_EEG_version,20,
Nonliving_Things,../experiment_stimuli/bw_bc_bl/Nonliving_Things/Kitchen_Uten/frying-pan_9.jpg,Kitchen_Uten,0,frying-pan,0,58,58,31,233.897623077,V_nV,2,233.902424651,235.150252318,1,2,0.461233315291,235.63202626,2,0,0.180613383302,5,6.0,32,bw,99.7846743243,2019_may_20_1639,016,256,20,5,xabi,Experiment_EEG_version,20,
Nonliving_Things,../experiment_stimuli/bw_bc_bl/Nonliving_Things/Buildings/factory_2.jpg,Buildings,0,factory,0,59,59,28,237.545548423,V_nV,2,237.550367354,238.788154293,1,2,0.671683711349,239.490407397,1,1,0.150544445496,5,8.0,32,bw,99.7846743243,2019_may_20_1639,016,256,20,5,xabi,Experiment_EEG_version,20,
Nonliving_Things,../experiment_stimuli/bw_bc_bl/Nonliving_Things/Kitchen_Uten/small-saucepan_11.jpg,Kitchen_Uten,0,small-saucepan,0,60,60,77,241.373875028,V_nV,2,241.378684982,242.656565549,1,2,0.521354097407,243.198473999,2,0,0.18062644673,5,6.0,32,bw,99.7846743243,2019_may_20_1639,016,256,20,5,xabi,Experiment_EEG_version,20,
Nonliving_Things,../experiment_stimuli/bw_bc_bl/Nonliving_Things/Buildings/house_22.jpg,Buildings,0,house,0,61,61,41,245.112000406,nV_V,1,245.118070984,246.374654067,1,1,0.571313088643,246.966535523,2,0,0.190635690815,5,6.0,32,bw,99.7846743243,2019_may_20_1639,016,256,20,5,xabi,Experiment_EEG_version,20,
Living_Things,../experiment_stimuli/bw_bc_bl/Living_Things/Marine_creatures/dolphin_3.jpg,Marine_creatures,0,dolphin,0,62,62,23,248.890223244,V_nV,1,248.89638152,250.142836398,1,1,0.531380389817,250.694755682,1,1,0.200654859655,5,6.0,32,bw,99.7846743243,2019_may_20_1639,016,256,20,5,xabi,Experiment_EEG_version,20,
Nonliving_Things,../experiment_stimuli/bw_bc_bl/Nonliving_Things/Furniture/table_25.jpg,Furniture,0,table,0,63,63,81,252.628340264,nV_V,1,252.633201845,253.890993629,1,1,0.892160888063,254.803705677,1,1,0.20064572792,5,7.5,32,bw,99.7846743243,2019_may_20_1639,016,256,20,5,xabi,Experiment_EEG_version,20,
Nonliving_Things,../experiment_stimuli/bw_bc_bl/Nonliving_Things/Furniture/bed_13.jpg,Furniture,0,bed,0,64,64,5,256.73727185,V_nV,2,256.742006756,258.040002062,1,2,0.56144309463,258.622006772,3,0,0.160565286991,5,7.0,32,bw,99.7846743243,2019_may_20_1639,016,256,20,5,xabi,Experiment_EEG_version,20,
Nonliving_Things,../experiment_stimuli/bw_bc_bl/Nonliving_Things/Musical_Inst/piano__6.jpg,Musical_Inst,0,piano,0,65,65,62,260.515489748,nV_V,1,260.520264308,261.778131346,1,1,0.561465943814,262.37018078,2,0,0.160564550082,5,6.5,32,bw,99.7846743243,2019_may_20_1639,016,256,20,5,xabi,Experiment_EEG_version,20,
Living_Things,../experiment_stimuli/bw_bc_bl/Living_Things/Animals/elephant_2.jpg,Animals,0,elephant,0,66,66,27,264.2636299,V_nV,1,264.268450752,265.51625737,1,1,0.49112841743,266.027943121,2,0,0.190637897351,5,6.5,32,bw,99.7846743243,2019_may_20_1639,016,256,20,5,xabi,Experiment_EEG_version,20,
Nonliving_Things,../experiment_stimuli/bw_bc_bl/Nonliving_Things/Vehicles/boat_11.jpg,Vehicles,0,boat,0,67,67,7,267.95165292,nV_V,1,267.956432589,269.194251444,1,1,0.641460719518,269.856276542,1,1,0.190636179643,5,6.5,32,bw,99.7846743243,2019_may_20_1639,016,256,20,5,xabi,Experiment_EEG_version,20,
Living_Things,../experiment_stimuli/bw_bc_bl/Living_Things/Birds/partridge_6.jpg,Birds,0,partridge,0,68,68,59,271.77997233,nV_V,2,271.786141553,273.052639773,1,2,0.761882167892,273.835073736,3,0,0.180606278125,5,7.5,32,bw,99.7846743243,2019_may_20_1639,016,256,20,5,xabi,Experiment_EEG_version,20,
Nonliving_Things,../experiment_stimuli/bw_bc_bl/Nonliving_Things/Tools/axe_26.jpg,Tools,0,axe,0,69,69,3,275.748600929,nV_V,1,275.754746454,277.001228674,0,2,0.501306722756,277.523095339,1,1,0.17058572988,5,6.0,32,bw,99.7846743243,2019_may_20_1639,016,256,20,5,xabi,Experiment_EEG_version,20,
Nonliving_Things,../experiment_stimuli/bw_bc_bl/Nonliving_Things/Musical_Inst/guitar_13.jpg,Musical_Inst,0,guitar,0,70,70,36,279.426597713,nV_V,1,279.431360412,280.709285212,1,1,0.541401960538,281.271243705,3,0,0.220697422163,5,7.0,32,bw,99.7846743243,2019_may_20_1639,016,256,20,5,xabi,Experiment_EEG_version,20,
Living_Things,../experiment_stimuli/bw_bc_bl/Living_Things/Birds/owl_14.jpg,Birds,0,owl,0,71,71,57,283.224847437,V_nV,1,283.230957676,284.487498523,0,2,0.581487773568,285.089560186,1,1,0.190749173984,5,6.5,32,bw,99.7846743243,2019_may_20_1639,016,256,20,5,xabi,Experiment_EEG_version,20,
Nonliving_Things,../experiment_stimuli/bw_bc_bl/Nonliving_Things/Buildings/granary_21.jpg,Buildings,0,granary,0,72,72,35,287.023122732,nV_V,1,287.027970752,288.315820846,1,1,0.541435809806,288.877804185,3,0,0.200645836769,5,6.0,32,bw,99.7846743243,2019_may_20_1639,016,256,20,5,xabi,Experiment_EEG_version,20,
Nonliving_Things,../experiment_stimuli/bw_bc_bl/Nonliving_Things/Furniture/bedside-table_19.jpg,Furniture,0,bedside-table,0,73,73,6,290.811340648,V_nV,2,290.816156154,292.063967512,1,2,0.471274829586,292.55580304,2,0,0.170440077782,5,6.0,32,bw,99.7846743243,2019_may_20_1639,016,256,20,5,xabi,Experiment_EEG_version,20,
Nonliving_Things,../experiment_stimuli/bw_bc_bl/Nonliving_Things/Vehicles/car_14.jpg,Vehicles,0,car,0,74,74,11,294.459283513,V_nV,2,294.465393147,295.701875976,1,2,0.581481912872,296.303917189,3,0,0.200654404471,5,6.0,32,bw,99.7846743243,2019_may_20_1639,016,256,20,5,xabi,Experiment_EEG_version,20,
Nonliving_Things,../experiment_stimuli/bw_bc_bl/Nonliving_Things/Buildings/palace_23.jpg,Buildings,0,palace,0,75,75,58,298.237491151,V_nV,2,298.242289676,299.48008993,1,2,0.491302272072,299.991947303,1,1,0.180602714187,5,6.5,32,bw,99.7846743243,2019_may_20_1639,016,256,20,5,xabi,Experiment_EEG_version,20,
Living_Things,../experiment_stimuli/bw_bc_bl/Living_Things/Birds/magpie_0.jpg,Birds,0,magpie,0,76,76,51,301.905465346,nV_V,2,301.910343404,303.168111544,1,2,0.691740657086,303.880388629,1,1,0.220542104682,5,6.0,32,bw,99.7846743243,2019_may_20_1639,016,256,20,5,xabi,Experiment_EEG_version,20,
Living_Things,../experiment_stimuli/bw_bc_bl/Living_Things/Insects/scorpion_2.jpg,Insects,0,scorpion,0,77,77,73,305.834002448,nV_V,2,305.838976324,307.116692074,0,1,1.48329085473,308.620572438,1,1,0.210688497405,5,6.5,32,bw,99.7846743243,2019_may_20_1639,016,256,20,5,xabi,Experiment_EEG_version,20,
Nonliving_Things,../experiment_stimuli/bw_bc_bl/Nonliving_Things/Kitchen_Uten/cup_11.jpg,Kitchen_Uten,0,cup,0,78,78,22,310.564290128,nV_V,1,310.569003323,311.856997091,1,1,0.581507976633,312.459065574,2,0,0.200664348085,5,6.0,32,bw,99.7846743243,2019_may_20_1639,016,256,20,5,xabi,Experiment_EEG_version,20,
Nonliving_Things,../experiment_stimuli/bw_bc_bl/Nonliving_Things/Musical_Inst/saxophone_14.jpg,Musical_Inst,0,saxophone,0,79,79,72,314.392609717,nV_V,1,314.397522624,315.675298272,1,1,0.401100616553,316.096953493,1,1,0.200653479667,5,6.0,32,bw,99.7846743243,2019_may_20_1639,016,256,20,5,xabi,Experiment_EEG_version,20,
Living_Things,../experiment_stimuli/bw_bc_bl/Living_Things/Birds/penguin_13.jpg,Birds,0,penguin,0,80,80,61,318.030533388,V_nV,1,318.036908165,319.353296432,1,1,0.902206883533,320.276057119,2,0,0.190641634632,5,6.0,32,bw,99.7846743243,2019_may_20_1639,016,256,20,5,xabi,Experiment_EEG_version,20,
Living_Things,../experiment_stimuli/bw_bc_bl/Living_Things/Marine_creatures/sperm-whale_23.jpg,Marine_creatures,0,sperm-whale,0,81,81,80,322.199579463,V_nV,1,322.207248548,323.502314099,1,1,0.511397698545,324.03426104,2,0,0.190626660944,5,6.5,32,bw,99.7846743243,2019_may_20_1639,016,256,20,5,xabi,Experiment_EEG_version,20,
Living_Things,../experiment_stimuli/bw_bc_bl/Living_Things/Marine_creatures/killer-whale_17.jpg,Marine_creatures,0,killer-whale,0,82,82,43,325.957746275,nV_V,2,325.962532541,327.250462423,1,2,0.551427629078,327.822441043,3,0,0.210701911128,5,6.0,32,bw,99.7846743243,2019_may_20_1639,016,256,20,5,xabi,Experiment_EEG_version,20,
Living_Things,../experiment_stimuli/bw_bc_bl/Living_Things/Birds/goldfinch_13.jpg,Birds,0,goldfinch,0,83,83,33,329.776052159,V_nV,1,329.782384775,331.04872241,1,1,0.781930376892,331.851198676,2,0,0.15054636274,5,6.0,32,bw,99.7846743243,2019_may_20_1639,016,256,20,5,xabi,Experiment_EEG_version,20,
Nonliving_Things,../experiment_stimuli/bw_bc_bl/Nonliving_Things/Kitchen_Uten/fondue_9.jpg,Kitchen_Uten,0,fondue,0,84,84,30,333.734656966,V_nV,2,333.741015145,334.99730212,1,2,1.19281987182,336.210677806,1,1,0.210679681972,5,6.0,32,bw,99.7846743243,2019_may_20_1639,016,256,20,5,xabi,Experiment_EEG_version,20,
Nonliving_Things,../experiment_stimuli/bw_bc_bl/Nonliving_Things/Tools/hammer_18.jpg,Tools,0,hammer,0,85,85,37,338.15428414,V_nV,2,338.159061079,339.436951011,1,2,0.451221748372,339.908738122,1,1,0.170579850324,5,6.0,32,bw,99.7846743243,2019_may_20_1639,016,256,20,5,xabi,Experiment_EEG_version,20,
Living_Things,../experiment_stimuli/bw_bc_bl/Living_Things/Marine_creatures/shark_2.jpg,Marine_creatures,0,shark,0,86,86,75,341.812219643,V_nV,1,341.8186138,343.114946051,1,1,0.451204838813,343.58672232,2,0,0.230714511476,5,6.5,32,bw,99.7846743243,2019_may_20_1639,016,256,20,5,xabi,Experiment_EEG_version,20,
Living_Things,../experiment_stimuli/bw_bc_bl/Living_Things/Insects/ladybird_24.jpg,Insects,0,ladybird,0,87,87,45,345.55033815,V_nV,1,345.555180978,346.833032419,1,1,0.701750558917,347.555358228,3,0,0.230715428712,5,6.0,32,bw,99.7846743243,2019_may_20_1639,016,256,20,5,xabi,Experiment_EEG_version,20,
Nonliving_Things,../experiment_stimuli/bw_bc_bl/Nonliving_Things/Furniture/rocking-chair_20.jpg,Furniture,0,rocking-chair,0,88,88,69,349.518966794,V_nV,2,349.523817254,350.772334208,1,2,0.481273998623,351.273455246,3,0,0.120480436017,5,6.5,32,bw,99.7846743243,2019_may_20_1639,016,256,20,5,xabi,Experiment_EEG_version,20,
Living_Things,../experiment_stimuli/bw_bc_bl/Living_Things/Birds/seagull_19.jpg,Birds,0,seagull,0,89,89,74,353.126811771,nV_V,2,353.131719163,354.359392084,1,2,0.501318256487,354.88128346,1,1,0.150545539218,5,6.5,32,bw,99.7846743243,2019_may_20_1639,016,256,20,5,xabi,Experiment_EEG_version,20,
Nonliving_Things,../experiment_stimuli/bw_bc_bl/Nonliving_Things/Buildings/mill_20.jpg,Buildings,0,mill,0,90,90,53,356.76471702,V_nV,2,356.769526658,358.007321637,0,1,0.77195154957,358.799846163,1,1,0.260787731269,5,7.0,32,bw,99.7846743243,2019_may_20_1639,016,256,20,5,xabi,Experiment_EEG_version,20,
Nonliving_Things,../experiment_stimuli/bw_bc_bl/Nonliving_Things/Furniture/filling-cabinet_15.jpg,Furniture,0,filling-cabinet,0,91,91,29,360.793515479,nV_V,1,360.798250126,362.04610295,0,2,0.471250096685,362.537915617,1,1,0.150545539334,5,6.0,32,bw,99.7846743243,2019_may_20_1639,016,256,20,5,xabi,Experiment_EEG_version,20,
Living_Things,../experiment_stimuli/bw_bc_bl/Living_Things/Marine_creatures/narwhal_12.jpg,Marine_creatures,0,narwhal,0,92,92,55,364.421362542,V_nV,1,364.426065147,365.704052089,1,1,0.721790441312,366.446399089,2,0,0.16057125316,5,6.5,32,bw,99.7846743243,2019_may_20_1639,016,256,20,5,xabi,Experiment_EEG_version,20,
Living_Things,../experiment_stimuli/bw_bc_bl/Living_Things/Birds/rooster_15.jpg,Birds,0,rooster,0,93,93,70,368.33990708,nV_V,2,368.344704681,369.612549595,1,2,0.591506220517,370.224607923,2,0,0.200657043606,5,6.5,32,bw,99.7846743243,2019_may_20_1639,016,256,20,5,xabi,Experiment_EEG_version,20,
Nonliving_Things,../experiment_stimuli/bw_bc_bl/Nonliving_Things/Furniture/wardrobe_6.jpg,Furniture,0,wardrobe,0,94,94,93,372.158181585,V_nV,2,372.163049244,373.420834994,1,2,0.551423343364,373.992800536,2,0,0.180618826766,5,6.0,32,bw,99.7846743243,2019_may_20_1639,016,256,20,5,xabi,Experiment_EEG_version,20,
Living_Things,../experiment_stimuli/bw_bc_bl/Living_Things/Birds/goose_19.jpg,Birds,0,goose,0,95,95,34,375.906329977,V_nV,1,375.911067905,377.158958481,1,1,0.701755382237,377.881283839,1,1,0.180628300295,5,6.5,32,bw,99.7846743243,2019_may_20_1639,016,256,20,5,xabi,Experiment_EEG_version,20,
