category,probe_path,subcategory,fixation_duration,label,trials.thisRepN,trials.thisTrialN,trials.thisN,trials.thisIndex,image_onset_time,response_window,correctAns,probe_onset,discrim_resptime,response.corr,response.keys,response.rt,visible_resptime,visible.keys,visible.corr,visible.rt,probeFrames,jitter2,n_square,experiment_color,frameRate,date,session,image_size,premask_dur,probeFrames,participant,expName,postmask_dur,
Nonliving_Things,../experiment_stimuli/bw_bc_bl/Nonliving_Things/Vehicles/motorbike_13.jpg,Vehicles,0,motorbike,0,0,0,54,3.7185220985,nV_V,1,3.73972492269,5.0012085971,1,1,0.691729969112,5.72378563974,2,0,0.130505544483,5,6.0,32,bw,99.7831920315,2019_may_15_1654,005,256,20,5,xabier,Experiment_EEG_version,20,
Living_Things,../experiment_stimuli/bw_bc_bl/Living_Things/Marine_creatures/dolphin_25.jpg,Marine_creatures,0,dolphin,0,1,1,23,7.58691886265,V_nV,1,7.59164477594,8.84958667052,0,2,0.791948312195,9.66209207533,1,1,0.100484617171,5,6.0,32,bw,99.7831920315,2019_may_15_1654,005,256,20,5,xabier,Experiment_EEG_version,20,
Nonliving_Things,../experiment_stimuli/bw_bc_bl/Nonliving_Things/Furniture/filling-cabinet_5.jpg,Furniture,0,filling-cabinet,0,2,2,29,11.4954216538,V_nV,2,11.5011764397,12.7680889049,1,2,0.872125412105,13.6607961837,2,0,0.200654389453,5,6.0,32,bw,99.7831920315,2019_may_15_1654,005,256,20,5,xabier,Experiment_EEG_version,20,
Nonliving_Things,../experiment_stimuli/bw_bc_bl/Nonliving_Things/Kitchen_Uten/saucepan_12.jpg,Kitchen_Uten,0,saucepan,0,3,3,71,15.5943385265,nV_V,1,15.5991482883,16.856977981,1,1,0.761887720204,17.6394007154,2,0,0.0503268396715,5,6.5,32,bw,99.7831920315,2019_may_15_1654,005,256,20,5,xabier,Experiment_EEG_version,20,
Nonliving_Things,../experiment_stimuli/bw_bc_bl/Nonliving_Things/Kitchen_Uten/frying-pan_11.jpg,Kitchen_Uten,0,frying-pan,0,4,4,31,19.4226524361,nV_V,1,19.428419902,20.6752868309,1,1,1.35316863167,22.0490060634,2,0,0.0603533948306,5,6.0,32,bw,99.7831920315,2019_may_15_1654,005,256,20,5,xabier,Experiment_EEG_version,20,
Nonliving_Things,../experiment_stimuli/bw_bc_bl/Nonliving_Things/Furniture/rocking-chair_26.jpg,Furniture,0,rocking-chair,0,5,5,69,23.8422549939,nV_V,1,23.8473075792,25.0848579613,1,1,0.711789783556,25.8172123787,2,0,0.0403053887421,5,6.0,32,bw,99.7831920315,2019_may_15_1654,005,256,20,5,xabier,Experiment_EEG_version,20,
Nonliving_Things,../experiment_stimuli/bw_bc_bl/Nonliving_Things/Buildings/church_24.jpg,Buildings,0,church,0,6,6,17,27.5904016531,V_nV,2,27.5952242682,28.8229882,1,2,0.651642404264,29.495188494,1,1,0.110460094758,5,6.5,32,bw,99.7831920315,2019_may_15_1654,005,256,20,5,xabier,Experiment_EEG_version,20,
Nonliving_Things,../experiment_stimuli/bw_bc_bl/Nonliving_Things/Kitchen_Uten/cup_1.jpg,Kitchen_Uten,0,cup,0,7,7,22,31.3385456169,nV_V,1,31.3433297701,32.5911749442,1,1,0.621574417921,33.2332944061,1,1,0.190618732246,5,6.0,32,bw,99.7831920315,2019_may_15_1654,005,256,20,5,xabier,Experiment_EEG_version,20,
Nonliving_Things,../experiment_stimuli/bw_bc_bl/Nonliving_Things/Musical_Inst/drum_22.jpg,Musical_Inst,0,drum,0,8,8,25,35.156846027,V_nV,2,35.1617228668,36.4295156726,1,2,0.821853432804,37.2719334199,2,0,0.190637961496,5,6.5,32,bw,99.7831920315,2019_may_15_1654,005,256,20,5,xabier,Experiment_EEG_version,20,
Living_Things,../experiment_stimuli/bw_bc_bl/Living_Things/Animals/hippopotamus_6.jpg,Animals,0,hippopotamus,0,9,9,39,39.1956249112,nV_V,2,39.200430015,40.4582766814,1,2,0.942272527842,41.4210987157,2,0,0.200652821921,5,6.0,32,bw,99.7831920315,2019_may_15_1654,005,256,20,5,xabier,Experiment_EEG_version,20,
Living_Things,../experiment_stimuli/bw_bc_bl/Living_Things/Animals/tapir_14.jpg,Animals,0,tapir,0,10,10,82,43.3546650542,nV_V,2,43.3600979761,44.6072862161,1,2,0.751858961652,45.3797105072,1,1,0.0202626460232,5,6.5,32,bw,99.7831920315,2019_may_15_1654,005,256,20,5,xabier,Experiment_EEG_version,20,
Nonliving_Things,../experiment_stimuli/bw_bc_bl/Nonliving_Things/Furniture/couch_21.jpg,Furniture,0,couch,0,11,11,19,47.1329028499,nV_V,1,47.1382970394,48.3955230796,1,1,0.711768783862,49.1278470802,1,1,0.200653472217,5,6.0,32,bw,99.7831920315,2019_may_15_1654,005,256,20,5,xabier,Experiment_EEG_version,20,
Nonliving_Things,../experiment_stimuli/bw_bc_bl/Nonliving_Things/Buildings/mill_3.jpg,Buildings,0,mill,0,12,12,53,51.061425193,nV_V,1,51.0664308353,52.3541278335,1,1,0.551434956258,52.9261519496,1,1,0.180606454611,5,7.5,32,bw,99.7831920315,2019_may_15_1654,005,256,20,5,xabier,Experiment_EEG_version,20,
Nonliving_Things,../experiment_stimuli/bw_bc_bl/Nonliving_Things/Vehicles/van_15.jpg,Vehicles,0,van,0,13,13,91,54.8396273541,nV_V,1,54.844459277,56.1624085827,1,1,0.631601540954,56.8145500588,3,0,0.290849932353,5,6.5,32,bw,99.7831920315,2019_may_15_1654,005,256,20,5,xabier,Experiment_EEG_version,20,
Living_Things,../experiment_stimuli/bw_bc_bl/Living_Things/Marine_creatures/lobster_3.jpg,Marine_creatures,0,lobster,0,14,14,49,58.8383236657,nV_V,2,58.8432655759,60.1310314604,1,2,0.571470375988,60.7230480531,1,1,0.200500541949,5,6.0,32,bw,99.7831920315,2019_may_15_1654,005,256,20,5,xabier,Experiment_EEG_version,20,
Living_Things,../experiment_stimuli/bw_bc_bl/Living_Things/Animals/cat_21.jpg,Animals,0,cat,0,15,15,13,62.6566177598,V_nV,1,62.661533276,63.9794097668,1,1,1.2830035917,65.2829839358,2,0,0.230719068088,5,6.0,32,bw,99.7831920315,2019_may_15_1654,005,256,20,5,xabier,Experiment_EEG_version,20,
Nonliving_Things,../experiment_stimuli/bw_bc_bl/Nonliving_Things/Vehicles/tractor_2.jpg,Vehicles,0,tractor,0,16,16,86,67.2465923367,nV_V,1,67.2525998442,68.559347318,1,1,0.591526475851,69.171437578,3,0,0.260799013311,5,6.0,32,bw,99.7831920315,2019_may_15_1654,005,256,20,5,xabier,Experiment_EEG_version,20,
Nonliving_Things,../experiment_stimuli/bw_bc_bl/Nonliving_Things/Furniture/chair_20.jpg,Furniture,0,chair,0,17,17,15,71.1651085069,nV_V,1,71.1701405286,72.447799821,1,1,0.781920557492,73.2502581896,2,0,0.250662676874,5,6.0,32,bw,99.7831920315,2019_may_15_1654,005,256,20,5,xabier,Experiment_EEG_version,20,
Living_Things,../experiment_stimuli/bw_bc_bl/Living_Things/Marine_creatures/manatee_12.jpg,Marine_creatures,0,manatee,0,18,18,52,75.233948656,nV_V,2,75.240286253,76.5066264895,1,2,0.69175035262,77.218930619,1,1,0.210678892559,5,6.0,32,bw,99.7831920315,2019_may_15_1654,005,256,20,5,xabier,Experiment_EEG_version,20,
Living_Things,../experiment_stimuli/bw_bc_bl/Living_Things/Animals/cheetah_22.jpg,Animals,0,cheetah,0,19,19,16,79.1625026488,V_nV,1,79.1674377772,80.4552055377,1,1,0.932256704895,81.4080020161,2,0,0.230721518863,5,6.0,32,bw,99.7831920315,2019_may_15_1654,005,256,20,5,xabier,Experiment_EEG_version,20,
Living_Things,../experiment_stimuli/bw_bc_bl/Living_Things/Animals/tiger_5.jpg,Animals,0,tiger,0,20,20,84,83.3716429013,V_nV,1,83.3765120232,84.6543319523,1,1,0.591509070015,85.2664032016,1,1,0.200653381995,5,6.0,32,bw,99.7831920315,2019_may_15_1654,005,256,20,5,xabier,Experiment_EEG_version,20,
Living_Things,../experiment_stimuli/bw_bc_bl/Living_Things/Birds/rooster_6.jpg,Birds,0,rooster,0,21,21,70,87.1999690478,V_nV,1,87.2048361581,88.5127213824,1,1,0.561451064423,89.094718675,1,1,0.200658829417,5,6.0,32,bw,99.7831920315,2019_may_15_1654,005,256,20,5,xabier,Experiment_EEG_version,20,
Living_Things,../experiment_stimuli/bw_bc_bl/Living_Things/Birds/goldfinch_3.jpg,Birds,0,goldfinch,0,22,22,33,91.0282840737,V_nV,1,91.0332041009,92.3610887567,1,1,0.511337571661,92.8929633877,3,0,0.210678851348,5,6.5,32,bw,99.7831920315,2019_may_15_1654,005,256,20,5,xabier,Experiment_EEG_version,20,
Living_Things,../experiment_stimuli/bw_bc_bl/Living_Things/Birds/toucan_26.jpg,Birds,0,toucan,0,23,23,85,94.8365652326,nV_V,2,94.8429370961,96.1493190675,1,2,0.952314884169,97.1221967208,2,0,0.190632232232,5,8.0,32,bw,99.7831920315,2019_may_15_1654,005,256,20,5,xabier,Experiment_EEG_version,20,
Living_Things,../experiment_stimuli/bw_bc_bl/Living_Things/Animals/elephant_7.jpg,Animals,0,elephant,0,24,24,27,99.0457134814,nV_V,2,99.0505734866,100.348452478,1,2,0.801988217398,101.171021123,3,0,0.180608766852,5,7.5,32,bw,99.7831920315,2019_may_15_1654,005,256,20,5,xabier,Experiment_EEG_version,20,
Nonliving_Things,../experiment_stimuli/bw_bc_bl/Nonliving_Things/Musical_Inst/piano__15.jpg,Musical_Inst,0,piano,0,25,25,62,103.084495395,nV_V,1,103.089310052,104.357158981,1,1,0.671681504697,105.049395101,2,0,0.150568941375,5,6.0,32,bw,99.7831920315,2019_may_15_1654,005,256,20,5,xabier,Experiment_EEG_version,20,
Living_Things,../experiment_stimuli/bw_bc_bl/Living_Things/Birds/pelican_8.jpg,Birds,0,pelican,0,26,26,60,106.93286024,V_nV,1,106.937790451,108.195504044,1,1,0.902201996301,109.12827617,2,0,0.160563110025,5,7.5,32,bw,99.7831920315,2019_may_15_1654,005,256,20,5,xabier,Experiment_EEG_version,20,
Living_Things,../experiment_stimuli/bw_bc_bl/Living_Things/Animals/turtle_6.jpg,Animals,0,turtle,0,27,27,90,111.021745997,V_nV,1,111.027402953,112.274369519,1,1,0.391097015468,112.686024101,1,1,0.20065965259,5,7.0,32,bw,99.7831920315,2019_may_15_1654,005,256,20,5,xabier,Experiment_EEG_version,20,
Living_Things,../experiment_stimuli/bw_bc_bl/Living_Things/Birds/pigeon_22.jpg,Birds,0,pigeon,0,28,28,63,114.619569925,nV_V,2,114.624409626,115.892229277,1,2,0.551422474789,116.464202744,1,1,0.110467992956,5,6.5,32,bw,99.7831920315,2019_may_15_1654,005,256,20,5,xabier,Experiment_EEG_version,20,
Nonliving_Things,../experiment_stimuli/bw_bc_bl/Nonliving_Things/Vehicles/ship_9.jpg,Vehicles,0,ship,0,29,29,76,118.30758369,V_nV,2,118.312429466,119.610317841,1,2,0.962316041696,120.593178441,2,0,0.180618202779,5,6.0,32,bw,99.7831920315,2019_may_15_1654,005,256,20,5,xabier,Experiment_EEG_version,20,
Living_Things,../experiment_stimuli/bw_bc_bl/Living_Things/Animals/rhino_26.jpg,Animals,0,rhino,0,30,30,68,122.506712665,V_nV,1,122.512394775,123.799431944,1,1,0.711770889116,124.531769757,2,0,0.0403181669535,5,6.0,32,bw,99.7831920315,2019_may_15_1654,005,256,20,5,xabier,Experiment_EEG_version,20,
Living_Things,../experiment_stimuli/bw_bc_bl/Living_Things/Insects/dragonfly_9.jpg,Insects,0,dragonfly,0,31,31,24,126.304967617,nV_V,2,126.309934877,127.587654372,1,2,0.92223033763,128.530446038,2,0,0.140541325556,5,6.5,32,bw,99.7831920315,2019_may_15_1654,005,256,20,5,xabier,Experiment_EEG_version,20,
Living_Things,../experiment_stimuli/bw_bc_bl/Living_Things/Birds/hummingbird_8.jpg,Birds,0,hummingbird,0,32,32,42,130.403878017,nV_V,2,130.4088494,131.67656509,1,2,0.64164241578,132.338738483,2,0,0.170585109736,5,7.0,32,bw,99.7831920315,2019_may_15_1654,005,256,20,5,xabier,Experiment_EEG_version,20,
Living_Things,../experiment_stimuli/bw_bc_bl/Living_Things/Animals/horse_15.jpg,Animals,0,horse,0,33,33,40,134.242220858,nV_V,2,134.247177388,135.504873334,1,2,0.601535945083,136.126959959,1,1,0.0403193813981,5,6.5,32,bw,99.7831920315,2019_may_15_1654,005,256,20,5,xabier,Experiment_EEG_version,20,
Living_Things,../experiment_stimuli/bw_bc_bl/Living_Things/Birds/sparrow_4.jpg,Birds,0,sparrow,0,34,34,79,137.900164331,V_nV,1,137.90614767,139.192882761,1,1,0.801969266497,140.01538988,1,1,0.180629533366,5,7.0,32,bw,99.7831920315,2019_may_15_1654,005,256,20,5,xabier,Experiment_EEG_version,20,
Nonliving_Things,../experiment_stimuli/bw_bc_bl/Nonliving_Things/Kitchen_Uten/coking-pot_4.jpg,Kitchen_Uten,0,coking-pot,0,35,35,18,141.928925182,V_nV,2,141.934749948,143.241682081,1,2,0.691731698462,143.953969124,3,0,0.240748529555,5,6.0,32,bw,99.7831920315,2019_may_15_1654,005,256,20,5,xabier,Experiment_EEG_version,20,
Living_Things,../experiment_stimuli/bw_bc_bl/Living_Things/Birds/owl_13.jpg,Birds,0,owl,0,36,36,57,145.927620279,V_nV,1,145.933416249,147.210318706,1,1,0.671686617425,147.902528334,1,1,0.170604590327,5,7.5,32,bw,99.7831920315,2019_may_15_1654,005,256,20,5,xabier,Experiment_EEG_version,20,
Living_Things,../experiment_stimuli/bw_bc_bl/Living_Things/Birds/seagull_21.jpg,Birds,0,seagull,0,37,37,74,149.806048076,V_nV,1,149.810957788,151.098761394,1,1,0.491295568994,151.610605195,2,0,0.120526567101,5,6.0,32,bw,99.7831920315,2019_may_15_1654,005,256,20,5,xabier,Experiment_EEG_version,20,
Nonliving_Things,../experiment_stimuli/bw_bc_bl/Nonliving_Things/Buildings/factory_25.jpg,Buildings,0,factory,0,38,38,28,153.464007689,V_nV,2,153.468922329,154.746690522,1,2,0.691731563187,155.468991719,2,0,0.130503818742,5,6.5,32,bw,99.7831920315,2019_may_15_1654,005,256,20,5,xabier,Experiment_EEG_version,20,
Nonliving_Things,../experiment_stimuli/bw_bc_bl/Nonliving_Things/Vehicles/train_19.jpg,Vehicles,0,train,0,39,39,87,157.332418295,V_nV,2,157.338257474,158.605076978,1,2,0.84207173367,159.467702496,1,1,0.10044203524,5,6.0,32,bw,99.7831920315,2019_may_15_1654,005,256,20,5,xabier,Experiment_EEG_version,20,
Living_Things,../experiment_stimuli/bw_bc_bl/Living_Things/Birds/goose_9.jpg,Birds,0,goose,0,40,40,34,161.301037206,V_nV,1,161.305875983,162.603769403,1,1,0.72179337719,163.346130872,3,0,0.190633130609,5,6.0,32,bw,99.7831920315,2019_may_15_1654,005,256,20,5,xabier,Experiment_EEG_version,20,
Living_Things,../experiment_stimuli/bw_bc_bl/Living_Things/Birds/magpie_18.jpg,Birds,0,magpie,0,41,41,51,165.269661227,V_nV,1,165.27454051,166.542329053,1,1,0.481269731536,167.044147859,1,1,0.180612492491,5,8.0,32,bw,99.7831920315,2019_may_15_1654,005,256,20,5,xabier,Experiment_EEG_version,20,
Living_Things,../experiment_stimuli/bw_bc_bl/Living_Things/Marine_creatures/crab_15.jpg,Marine_creatures,0,crab,0,42,42,21,168.957674713,nV_V,2,168.962636623,170.260409041,1,2,1.35318129312,171.634158585,1,1,0.120588915655,5,7.0,32,bw,99.7831920315,2019_may_15_1654,005,256,20,5,xabier,Experiment_EEG_version,20,
Living_Things,../experiment_stimuli/bw_bc_bl/Living_Things/Animals/giraffe_20.jpg,Animals,0,giraffe,0,43,43,32,173.487525662,V_nV,1,173.492419464,174.800282241,1,1,1.05253047112,175.873350133,2,0,0.210691809654,5,6.5,32,bw,99.7831920315,2019_may_15_1654,005,256,20,5,xabier,Experiment_EEG_version,20,
Living_Things,../experiment_stimuli/bw_bc_bl/Living_Things/Marine_creatures/pomfret_9.jpg,Marine_creatures,0,pomfret,0,44,44,65,177.816940659,V_nV,1,177.821824833,179.119668276,1,1,0.511332124122,179.651552538,1,1,0.310894735507,5,7.5,32,bw,99.7831920315,2019_may_15_1654,005,256,20,5,xabier,Experiment_EEG_version,20,
Nonliving_Things,../experiment_stimuli/bw_bc_bl/Nonliving_Things/Tools/axe_24.jpg,Tools,0,axe,0,45,45,3,181.69536526,V_nV,2,181.700311588,183.028163161,1,2,1.07239823567,184.121116764,3,0,0.170579831349,5,6.0,32,bw,99.7831920315,2019_may_15_1654,005,256,20,5,xabier,Experiment_EEG_version,20,
Nonliving_Things,../experiment_stimuli/bw_bc_bl/Nonliving_Things/Vehicles/boat_16.jpg,Vehicles,0,boat,0,46,46,7,186.024779253,V_nV,2,186.02985262,187.327511532,1,2,0.571486014873,187.919541523,2,0,0.200658013462,5,7.0,32,bw,99.7831920315,2019_may_15_1654,005,256,20,5,xabier,Experiment_EEG_version,20,
Living_Things,../experiment_stimuli/bw_bc_bl/Living_Things/Insects/ladybird_12.jpg,Insects,0,ladybird,0,47,47,45,189.853099061,nV_V,2,189.858168653,191.145808231,1,2,2.62593778362,193.792296085,1,1,0.0904109342955,5,6.0,32,bw,99.7831920315,2019_may_15_1654,005,256,20,5,xabier,Experiment_EEG_version,20,
Living_Things,../experiment_stimuli/bw_bc_bl/Living_Things/Animals/cow_17.jpg,Animals,0,cow,0,48,48,20,195.61562313,V_nV,1,195.620432877,196.938406152,1,1,1.9444526186,198.903404232,1,1,0.150554373744,5,6.0,32,bw,99.7831920315,2019_may_15_1654,005,256,20,5,xabier,Experiment_EEG_version,20,
Living_Things,../experiment_stimuli/bw_bc_bl/Living_Things/Marine_creatures/whale_24.jpg,Marine_creatures,0,whale,0,49,49,94,200.786872875,V_nV,1,200.79274688,202.139708564,1,1,0.741843104945,202.902111544,2,0,0.0403060693061,5,6.0,32,bw,99.7831920315,2019_may_15_1654,005,256,20,5,xabier,Experiment_EEG_version,20,
Nonliving_Things,../experiment_stimuli/bw_bc_bl/Nonliving_Things/Furniture/wardrobe_2.jpg,Furniture,0,wardrobe,0,50,50,93,204.675332848,V_nV,2,204.680169369,206.018137241,1,2,0.711769904126,206.750472693,3,0,0.070370518486,5,7.0,32,bw,99.7831920315,2019_may_15_1654,005,256,20,5,xabier,Experiment_EEG_version,20,
Nonliving_Things,../experiment_stimuli/bw_bc_bl/Nonliving_Things/Buildings/house_11.jpg,Buildings,0,house,0,51,51,41,208.553750205,V_nV,2,208.559662117,209.866503412,1,2,0.852071849629,210.739127151,3,0,0.0803923223866,5,6.5,32,bw,99.7831920315,2019_may_15_1654,005,256,20,5,xabier,Experiment_EEG_version,20,
Nonliving_Things,../experiment_stimuli/bw_bc_bl/Nonliving_Things/Furniture/lamp_25.jpg,Furniture,0,lamp,0,52,52,46,212.552440163,nV_V,1,212.557259177,213.835130015,1,1,2.64581528085,216.501502411,3,0,0.100438677939,5,6.0,32,bw,99.7831920315,2019_may_15_1654,005,256,20,5,xabier,Experiment_EEG_version,20,
Nonliving_Things,../experiment_stimuli/bw_bc_bl/Nonliving_Things/Buildings/cathedral_19.jpg,Buildings,0,cathedral,0,53,53,14,218.335010495,V_nV,2,218.341132147,219.597655213,1,2,0.64161320962,220.25983447,1,1,0.0501678719884,5,6.0,32,bw,99.7831920315,2019_may_15_1654,005,256,20,5,xabier,Experiment_EEG_version,20,
Living_Things,../experiment_stimuli/bw_bc_bl/Living_Things/Marine_creatures/sperm-whale_19.jpg,Marine_creatures,0,sperm-whale,0,54,54,80,222.043069311,nV_V,2,222.050276478,223.325769166,1,2,1.02245185315,224.368769977,1,1,0.0603466208559,5,6.0,32,bw,99.7831920315,2019_may_15_1654,005,256,20,5,xabier,Experiment_EEG_version,20,
Nonliving_Things,../experiment_stimuli/bw_bc_bl/Nonliving_Things/Buildings/castle_11.jpg,Buildings,0,castle,0,55,55,12,226.162023738,nV_V,1,226.166847023,227.454734424,1,1,0.581489521777,228.056786806,1,1,0.120482691564,5,6.0,32,bw,99.7831920315,2019_may_15_1654,005,256,20,5,xabier,Experiment_EEG_version,20,
Nonliving_Things,../experiment_stimuli/bw_bc_bl/Nonliving_Things/Buildings/palace_21.jpg,Buildings,0,palace,0,56,56,58,229.910194262,V_nV,2,229.915064959,231.212907932,1,2,1.00224409346,232.23571213,1,1,0.0403131408384,5,7.0,32,bw,99.7831920315,2019_may_15_1654,005,256,20,5,xabier,Experiment_EEG_version,20,
Nonliving_Things,../experiment_stimuli/bw_bc_bl/Nonliving_Things/Furniture/armchair_17.jpg,Furniture,0,armchair,0,57,57,2,234.009082962,nV_V,1,234.01390593,235.331858341,1,1,0.751863593119,236.104270204,3,0,0.11050598498,5,6.5,32,bw,99.7831920315,2019_may_15_1654,005,256,20,5,xabier,Experiment_EEG_version,20,
Living_Things,../experiment_stimuli/bw_bc_bl/Living_Things/Insects/butterfly_3.jpg,Insects,0,butterfly,0,58,58,10,237.947644349,V_nV,1,237.952488802,239.250378977,1,1,1.4133103647,240.684250348,3,0,0.0904171000002,5,6.0,32,bw,99.7831920315,2019_may_15_1654,005,256,20,5,xabier,Experiment_EEG_version,20,
Nonliving_Things,../experiment_stimuli/bw_bc_bl/Nonliving_Things/Vehicles/plane_14.jpg,Vehicles,0,plane,0,59,59,64,242.507554304,nV_V,1,242.512411745,243.790246764,0,2,1.21286455123,245.023666062,1,1,0.0804011718137,5,7.0,32,bw,99.7831920315,2019_may_15_1654,005,256,20,5,xabier,Experiment_EEG_version,20,
Nonliving_Things,../experiment_stimuli/bw_bc_bl/Nonliving_Things/Furniture/bed_16.jpg,Furniture,0,bed,0,60,60,5,246.836964119,nV_V,1,246.8431292,248.149719815,1,1,0.64162124705,248.81191938,3,0,0.18060977431,5,6.0,32,bw,99.7831920315,2019_may_15_1654,005,256,20,5,xabier,Experiment_EEG_version,20,
Nonliving_Things,../experiment_stimuli/bw_bc_bl/Nonliving_Things/Furniture/bookcase_20.jpg,Furniture,0,bookcase,0,61,61,8,250.725418762,V_nV,2,250.732834617,252.008114124,1,2,1.18279853067,253.211449289,1,1,0.060344778467,5,8.0,32,bw,99.7831920315,2019_may_15_1654,005,256,20,5,xabier,Experiment_EEG_version,20,
Living_Things,../experiment_stimuli/bw_bc_bl/Living_Things/Birds/duck_9.jpg,Birds,0,duck,0,62,62,26,255.004723757,V_nV,1,255.009599691,256.297434052,1,1,0.791792893433,257.10978464,3,0,0.110511834384,5,6.0,32,bw,99.7831920315,2019_may_15_1654,005,256,20,5,xabier,Experiment_EEG_version,20,
Living_Things,../experiment_stimuli/bw_bc_bl/Living_Things/Birds/kiwi_25.jpg,Birds,0,kiwi,0,63,63,44,258.953302234,V_nV,1,258.958128326,260.225971447,1,1,0.721811591298,260.968322737,2,0,0.0703646689653,5,6.0,32,bw,99.7831920315,2019_may_15_1654,005,256,20,5,xabier,Experiment_EEG_version,20,
Nonliving_Things,../experiment_stimuli/bw_bc_bl/Nonliving_Things/Musical_Inst/tuba_11.jpg,Musical_Inst,0,tuba,0,64,64,89,262.771607016,nV_V,1,262.776582137,264.034251272,1,1,0.922230130644,264.97702154,3,0,0.140567246359,5,6.0,32,bw,99.7831920315,2019_may_15_1654,005,256,20,5,xabier,Experiment_EEG_version,20,
Living_Things,../experiment_stimuli/bw_bc_bl/Living_Things/Birds/raven_19.jpg,Birds,0,raven,0,65,65,67,266.850466755,V_nV,1,266.855452089,268.09307041,0,2,1.2329006549,269.35654315,1,1,0.0703749094391,5,6.0,32,bw,99.7831920315,2019_may_15_1654,005,256,20,5,xabier,Experiment_EEG_version,20,
Living_Things,../experiment_stimuli/bw_bc_bl/Living_Things/Animals/armadillo_25.jpg,Animals,0,armadillo,0,66,66,1,271.1598377,V_nV,1,271.164597399,272.412460441,0,2,0.872117776657,273.305133698,1,1,0.0904105056543,5,7.5,32,bw,99.7831920315,2019_may_15_1654,005,256,20,5,xabier,Experiment_EEG_version,20,
Living_Things,../experiment_stimuli/bw_bc_bl/Living_Things/Birds/partridge_22.jpg,Birds,0,partridge,0,67,67,59,275.128467581,nV_V,2,275.13330029,276.401131501,1,2,1.54358299135,277.965260014,2,0,0.15056303551,5,6.5,32,bw,99.7831920315,2019_may_15_1654,005,256,20,5,xabier,Experiment_EEG_version,20,
Living_Things,../experiment_stimuli/bw_bc_bl/Living_Things/Insects/scorpion_12.jpg,Insects,0,scorpion,0,68,68,73,279.848727134,nV_V,2,279.853588654,281.111371416,1,2,0.972335507162,282.104243365,1,1,0.040305915405,5,6.0,32,bw,99.7831920315,2019_may_15_1654,005,256,20,5,xabier,Experiment_EEG_version,20,
Living_Things,../experiment_stimuli/bw_bc_bl/Living_Things/Marine_creatures/killer-whale_23.jpg,Marine_creatures,0,killer-whale,0,69,69,43,283.877482203,V_nV,1,283.883574781,285.170203216,0,2,1.77408300247,286.964839555,1,1,0.0403065094724,5,8.0,32,bw,99.7831920315,2019_may_15_1654,005,256,20,5,xabier,Experiment_EEG_version,20,
Living_Things,../experiment_stimuli/bw_bc_bl/Living_Things/Birds/penguin_12.jpg,Birds,0,penguin,0,70,70,61,288.73805628,V_nV,1,288.74285711,290.030758496,1,1,1.33312755777,291.384442335,2,0,0.0705595533364,5,6.0,32,bw,99.7831920315,2019_may_15_1654,005,256,20,5,xabier,Experiment_EEG_version,20,
Nonliving_Things,../experiment_stimuli/bw_bc_bl/Nonliving_Things/Musical_Inst/guitar_8.jpg,Musical_Inst,0,guitar,0,71,71,36,293.187720487,V_nV,2,293.192467035,294.470405368,1,2,0.852077274234,295.343052074,2,0,0.130498958169,5,6.0,32,bw,99.7831920315,2019_may_15_1654,005,256,20,5,xabier,Experiment_EEG_version,20,
Living_Things,../experiment_stimuli/bw_bc_bl/Living_Things/Marine_creatures/narwhal_7.jpg,Marine_creatures,0,narwhal,0,72,72,55,297.206451432,nV_V,2,297.211213552,298.489143292,1,2,1.76406165317,300.273753222,1,1,0.0803941268241,5,6.0,32,bw,99.7831920315,2019_may_15_1654,005,256,20,5,xabier,Experiment_EEG_version,20,
Living_Things,../experiment_stimuli/bw_bc_bl/Living_Things/Animals/lioness_10.jpg,Animals,0,lioness,0,73,73,48,302.087066429,nV_V,2,302.091873834,303.369759397,0,1,4.34968181513,307.739988031,1,1,0.451216086745,5,6.0,32,bw,99.7831920315,2019_may_15_1654,005,256,20,5,xabier,Experiment_EEG_version,20,
Living_Things,../experiment_stimuli/bw_bc_bl/Living_Things/Birds/barn-owl_13.jpg,Birds,0,barn-owl,0,74,74,4,309.924100815,nV_V,2,309.928826826,311.226833699,1,2,0.902208071551,312.149603021,3,0,0.180610503652,5,7.0,32,bw,99.7831920315,2019_may_15_1654,005,256,20,5,xabier,Experiment_EEG_version,20,
Nonliving_Things,../experiment_stimuli/bw_bc_bl/Nonliving_Things/Furniture/table_16.jpg,Furniture,0,table,0,75,75,81,314.063098038,nV_V,1,314.067859045,315.345785165,1,1,0.771899324725,316.138251627,3,0,0.180610071053,5,6.0,32,bw,99.7831920315,2019_may_15_1654,005,256,20,5,xabier,Experiment_EEG_version,20,
Nonliving_Things,../experiment_stimuli/bw_bc_bl/Nonliving_Things/Kitchen_Uten/teapot_3.jpg,Kitchen_Uten,0,teapot,0,76,76,83,318.051765697,V_nV,2,318.057953311,319.314414534,1,2,0.581516728387,319.916499946,1,1,0.0703758758027,5,6.0,32,bw,99.7831920315,2019_may_15_1654,005,256,20,5,xabier,Experiment_EEG_version,20,
Nonliving_Things,../experiment_stimuli/bw_bc_bl/Nonliving_Things/Musical_Inst/violin_13.jpg,Musical_Inst,0,violin,0,77,77,92,321.719741421,V_nV,2,321.724577239,323.022471978,1,2,0.531382389832,323.574405698,2,0,0.150565824704,5,7.5,32,bw,99.7831920315,2019_may_15_1654,005,256,20,5,xabier,Experiment_EEG_version,20,
Nonliving_Things,../experiment_stimuli/bw_bc_bl/Nonliving_Things/Furniture/bedside-table_4.jpg,Furniture,0,bedside-table,0,78,78,6,325.457872235,V_nV,2,325.462655982,326.740554937,1,2,0.972340337699,327.743467641,1,1,0.0102336615091,5,6.0,32,bw,99.7831920315,2019_may_15_1654,005,256,20,5,xabier,Experiment_EEG_version,20,
Living_Things,../experiment_stimuli/bw_bc_bl/Living_Things/Animals/zebra_26.jpg,Animals,0,zebra,0,79,79,95,329.486623011,nV_V,2,329.491464017,330.809399706,1,2,0.932256749948,331.762223109,2,0,0.150540426839,5,7.5,32,bw,99.7831920315,2019_may_15_1654,005,256,20,5,xabier,Experiment_EEG_version,20,
Nonliving_Things,../experiment_stimuli/bw_bc_bl/Nonliving_Things/Tools/hammer_20.jpg,Tools,0,hammer,0,80,80,37,333.645661973,nV_V,1,333.651984939,334.948400294,1,1,0.401099341922,335.370042488,1,1,0.150537028094,5,6.0,32,bw,99.7831920315,2019_may_15_1654,005,256,20,5,xabier,Experiment_EEG_version,20,
Nonliving_Things,../experiment_stimuli/bw_bc_bl/Nonliving_Things/Vehicles/car_0.jpg,Vehicles,0,car,0,81,81,11,337.253507465,V_nV,2,337.258295979,338.586302735,1,2,0.76188511122,339.368737728,3,0,0.250612869509,5,6.0,32,bw,99.7831920315,2019_may_15_1654,005,256,20,5,xabier,Experiment_EEG_version,20,
Living_Things,../experiment_stimuli/bw_bc_bl/Living_Things/Birds/ostrich_20.jpg,Birds,0,ostrich,0,82,82,56,341.352412943,nV_V,2,341.35732141,342.655159226,1,2,1.24293448497,343.918659856,1,1,0.230719334912,5,6.0,32,bw,99.7831920315,2019_may_15_1654,005,256,20,5,xabier,Experiment_EEG_version,20,
Nonliving_Things,../experiment_stimuli/bw_bc_bl/Nonliving_Things/Kitchen_Uten/fondue_20.jpg,Kitchen_Uten,0,fondue,0,83,83,30,345.882256697,V_nV,2,345.88710227,347.195018749,1,2,0.812008712674,348.027581551,1,1,0.160568193183,5,6.0,32,bw,99.7831920315,2019_may_15_1654,005,256,20,5,xabier,Experiment_EEG_version,20,
Living_Things,../experiment_stimuli/bw_bc_bl/Living_Things/Birds/hen_20.jpg,Birds,0,hen,0,84,84,38,349.921044299,nV_V,2,349.925800467,351.244620937,1,2,0.872122378554,352.136490104,2,0,0.20065171679,5,6.5,32,bw,99.7831920315,2019_may_15_1654,005,256,20,5,xabier,Experiment_EEG_version,20,
Nonliving_Things,../experiment_stimuli/bw_bc_bl/Nonliving_Things/Furniture/lectern_10.jpg,Furniture,0,lectern,0,85,85,47,354.080082389,nV_V,1,354.084958207,355.402865189,1,1,1.44336523511,356.866783141,2,0,0.180601202999,5,6.5,32,bw,99.7831920315,2019_may_15_1654,005,256,20,5,xabier,Experiment_EEG_version,20,
Nonliving_Things,../experiment_stimuli/bw_bc_bl/Nonliving_Things/Musical_Inst/trumpet_19.jpg,Musical_Inst,0,trumpet,0,86,86,88,358.780300158,nV_V,1,358.78516284,360.103080353,1,1,1.14271016093,361.266353783,2,0,0.22070533142,5,7.0,32,bw,99.7831920315,2019_may_15_1654,005,256,20,5,xabier,Experiment_EEG_version,20,
Nonliving_Things,../experiment_stimuli/bw_bc_bl/Nonliving_Things/Kitchen_Uten/small-saucepan_5.jpg,Kitchen_Uten,0,small-saucepan,0,87,87,77,363.21996671,nV_V,1,363.227862086,364.52268111,1,1,0.511336293421,365.054569304,2,0,0.200654231594,5,7.0,32,bw,99.7831920315,2019_may_15_1654,005,256,20,5,xabier,Experiment_EEG_version,20,
Nonliving_Things,../experiment_stimuli/bw_bc_bl/Nonliving_Things/Vehicles/bus_16.jpg,Vehicles,0,bus,0,88,88,9,366.988142297,V_nV,2,366.994609937,368.280852321,1,2,1.02245133044,369.323858681,3,0,0.180610360811,5,7.0,32,bw,99.7831920315,2019_may_15_1654,005,256,20,5,xabier,Experiment_EEG_version,20,
Nonliving_Things,../experiment_stimuli/bw_bc_bl/Nonliving_Things/Musical_Inst/saxophone_4.jpg,Musical_Inst,0,saxophone,0,89,89,72,371.237379099,V_nV,2,371.244805579,372.520072714,1,2,0.47124654823,373.011888795,2,0,0.150572757237,5,6.5,32,bw,99.7831920315,2019_may_15_1654,005,256,20,5,xabier,Experiment_EEG_version,20,
Living_Things,../experiment_stimuli/bw_bc_bl/Living_Things/Marine_creatures/shark_3.jpg,Marine_creatures,0,shark,0,90,90,75,374.895328201,V_nV,1,374.900093489,376.157972437,0,2,0.771889133379,376.950448738,1,1,0.0803939012112,5,6.5,32,bw,99.7831920315,2019_may_15_1654,005,256,20,5,xabier,Experiment_EEG_version,20,
Nonliving_Things,../experiment_stimuli/bw_bc_bl/Nonliving_Things/Furniture/Chest-of-drawers_18.jpg,Furniture,0,Chest-of-drawers,0,91,91,0,378.773757686,nV_V,1,378.778544241,380.0564623,1,1,0.73181484628,380.808826022,2,0,0.10044093756,5,6.0,32,bw,99.7831920315,2019_may_15_1654,005,256,20,5,xabier,Experiment_EEG_version,20,
Nonliving_Things,../experiment_stimuli/bw_bc_bl/Nonliving_Things/Furniture/sofa_25.jpg,Furniture,0,sofa,0,92,92,78,382.64216698,V_nV,2,382.646912509,383.924860591,1,2,0.731835654355,384.677249368,2,0,0.150575189386,5,6.0,32,bw,99.7831920315,2019_may_15_1654,005,256,20,5,xabier,Experiment_EEG_version,20,
Nonliving_Things,../experiment_stimuli/bw_bc_bl/Nonliving_Things/Buildings/granary_8.jpg,Buildings,0,granary,0,93,93,35,386.570730405,V_nV,2,386.575621688,387.843377881,1,2,0.521378593286,388.385324011,2,0,0.150546272518,5,6.0,32,bw,99.7831920315,2019_may_15_1654,005,256,20,5,xabier,Experiment_EEG_version,20,
Living_Things,../experiment_stimuli/bw_bc_bl/Living_Things/Animals/lynx_14.jpg,Animals,0,lynx,0,94,94,50,390.268741816,V_nV,1,390.273560077,391.531392477,1,1,0.77192011429,392.323862391,2,0,0.0503301328281,5,6.0,32,bw,99.7831920315,2019_may_15_1654,005,256,20,5,xabier,Experiment_EEG_version,20,
Nonliving_Things,../experiment_stimuli/bw_bc_bl/Nonliving_Things/Kitchen_Uten/pot_0.jpg,Kitchen_Uten,0,pot,0,95,95,66,394.117109096,nV_V,1,394.121926076,395.369749138,1,1,0.691728690988,396.082030624,1,1,0.190624762559,5,6.0,32,bw,99.7831920315,2019_may_15_1654,005,256,20,5,xabier,Experiment_EEG_version,20,
