category,probe_path,subcategory,fixation_duration,label,trials.thisRepN,trials.thisTrialN,trials.thisN,trials.thisIndex,image_onset_time,response_window,correctAns,probe_onset,discrim_resptime,response.corr,response.keys,response.rt,visible_resptime,visible.keys,visible.corr,visible.rt,probeFrames,jitter2,n_square,experiment_color,frameRate,date,session,image_size,premask_dur,probeFrames,participant,expName,postmask_dur,
Living_Things,../experiment_stimuli/bw_bc_bl/Living_Things/Animals/rhino_18.jpg,Animals,0,rhino,0,0,0,68,3.71759826608,nV_V,2,3.73917314503,5.00028036581,1,2,0.551240556524,5.5823972997,2,0,0.210669629509,5,6.0,32,bw,99.188374404,2019_may_20_1558,011,256,20,5,xabi,Experiment_EEG_version,20,
Nonliving_Things,../experiment_stimuli/bw_bc_bl/Nonliving_Things/Furniture/lectern_7.jpg,Furniture,0,lectern,0,1,1,47,7.52586999652,nV_V,1,7.53090987913,8.78851952241,1,1,0.671699560713,9.48077563837,2,0,0.250765055302,5,6.0,32,bw,99.188374404,2019_may_20_1558,011,256,20,5,xabi,Experiment_EEG_version,20,
Nonliving_Things,../experiment_stimuli/bw_bc_bl/Nonliving_Things/Vehicles/ship_11.jpg,Vehicles,0,ship,0,2,2,76,11.4644257032,nV_V,1,11.4699747064,12.7170557898,1,1,0.340964037809,13.078564447,1,1,0.180607232964,5,8.0,32,bw,99.188374404,2019_may_20_1558,011,256,20,5,xabi,Experiment_EEG_version,20,
Living_Things,../experiment_stimuli/bw_bc_bl/Living_Things/Birds/seagull_23.jpg,Birds,0,seagull,0,3,3,74,14.9921012116,V_nV,1,14.9970002352,16.2547438955,1,1,0.681553957053,16.9568479155,1,1,0.210680050426,5,6.0,32,bw,99.188374404,2019_may_20_1558,011,256,20,5,xabi,Experiment_EEG_version,20,
Nonliving_Things,../experiment_stimuli/bw_bc_bl/Nonliving_Things/Buildings/castle_2.jpg,Buildings,0,castle,0,4,4,12,18.9005903037,nV_V,1,18.9056468816,20.1832820615,1,1,0.76189151709,20.9657368741,2,0,0.220689045964,5,6.0,32,bw,99.188374404,2019_may_20_1558,011,256,20,5,xabi,Experiment_EEG_version,20,
Living_Things,../experiment_stimuli/bw_bc_bl/Living_Things/Birds/raven_10.jpg,Birds,0,raven,0,5,5,67,22.9193313769,nV_V,2,22.9242548703,24.1919974701,1,2,0.551419550437,24.7639596321,3,0,0.170589406509,5,6.0,32,bw,99.188374404,2019_may_20_1558,011,256,20,5,xabi,Experiment_EEG_version,20,
Nonliving_Things,../experiment_stimuli/bw_bc_bl/Nonliving_Things/Furniture/Chest-of-drawers_5.jpg,Furniture,0,Chest-of-drawers,0,6,6,0,26.6674757655,nV_V,1,26.6728384971,27.920102078,1,1,0.511336834868,28.4520020995,1,1,0.200654408429,5,6.0,32,bw,99.188374404,2019_may_20_1558,011,256,20,5,xabi,Experiment_EEG_version,20,
Nonliving_Things,../experiment_stimuli/bw_bc_bl/Nonliving_Things/Tools/axe_13.jpg,Tools,0,axe,0,7,7,3,30.3855627388,V_nV,2,30.3907402962,31.6582283168,1,2,0.802000502707,32.4808036265,2,0,0.200664438424,5,6.0,32,bw,99.188374404,2019_may_20_1558,011,256,20,5,xabi,Experiment_EEG_version,20,
Nonliving_Things,../experiment_stimuli/bw_bc_bl/Nonliving_Things/Furniture/chair_15.jpg,Furniture,0,chair,0,8,8,15,34.4143139167,V_nV,2,34.4192663761,35.6769646382,1,2,0.972336131264,36.6698586515,1,1,0.180614571203,5,6.0,32,bw,99.188374404,2019_may_20_1558,011,256,20,5,xabi,Experiment_EEG_version,20,
Living_Things,../experiment_stimuli/bw_bc_bl/Living_Things/Animals/turtle_1.jpg,Animals,0,turtle,0,9,9,90,38.5833747472,nV_V,2,38.5881934601,39.8660696252,1,2,0.661666422617,40.5482898809,1,1,0.21067271207,5,7.5,32,bw,99.188374404,2019_may_20_1558,011,256,20,5,xabi,Experiment_EEG_version,20,
Nonliving_Things,../experiment_stimuli/bw_bc_bl/Nonliving_Things/Furniture/table_3.jpg,Furniture,0,table,0,10,10,81,42.4918740082,nV_V,1,42.4967988625,43.7946084113,1,1,1.43333887088,45.2484846085,3,0,0.210691268207,5,6.0,32,bw,99.188374404,2019_may_20_1558,011,256,20,5,xabi,Experiment_EEG_version,20,
Living_Things,../experiment_stimuli/bw_bc_bl/Living_Things/Birds/goldfinch_20.jpg,Birds,0,goldfinch,0,11,11,33,47.1920941941,V_nV,1,47.1980804503,48.4747938425,1,1,0.631592868362,49.1269282924,2,0,0.230575788068,5,6.5,32,bw,99.188374404,2019_may_20_1558,011,256,20,5,xabi,Experiment_EEG_version,20,
Living_Things,../experiment_stimuli/bw_bc_bl/Living_Things/Animals/cheetah_8.jpg,Animals,0,cheetah,0,12,12,16,51.0905671065,V_nV,1,51.0955101033,52.3632416392,1,1,0.601542685763,52.9853249331,2,0,0.240738176391,5,7.0,32,bw,99.188374404,2019_may_20_1558,011,256,20,5,xabi,Experiment_EEG_version,20,
Living_Things,../experiment_stimuli/bw_bc_bl/Living_Things/Birds/kiwi_22.jpg,Birds,0,kiwi,0,13,13,44,54.9589767124,nV_V,2,54.9644992534,56.2216209865,1,2,0.611549411085,56.8537145393,1,1,0.190616852604,5,6.0,32,bw,99.188374404,2019_may_20_1558,011,256,20,5,xabi,Experiment_EEG_version,20,
Living_Things,../experiment_stimuli/bw_bc_bl/Living_Things/Marine_creatures/narwhal_4.jpg,Marine_creatures,0,narwhal,0,14,14,55,58.7772752166,V_nV,1,58.7821894319,60.0599670907,1,1,0.631605270319,60.7121125895,2,0,0.250781581388,5,6.0,32,bw,99.188374404,2019_may_20_1558,011,256,20,5,xabi,Experiment_EEG_version,20,
Nonliving_Things,../experiment_stimuli/bw_bc_bl/Nonliving_Things/Furniture/bed_10.jpg,Furniture,0,bed,0,15,15,5,62.695793541,nV_V,1,62.7005810098,63.9684832501,1,1,0.711772701005,64.7008268259,2,0,0.230723951361,5,6.0,32,bw,99.188374404,2019_may_20_1558,011,256,20,5,xabi,Experiment_EEG_version,20,
Living_Things,../experiment_stimuli/bw_bc_bl/Living_Things/Marine_creatures/lobster_22.jpg,Marine_creatures,0,lobster,0,16,16,49,66.6644188246,V_nV,1,66.6693264422,67.9270757075,1,1,0.601370594348,68.5490028721,1,1,0.220754067996,5,6.0,32,bw,99.188374404,2019_may_20_1558,011,256,20,5,xabi,Experiment_EEG_version,20,
Nonliving_Things,../experiment_stimuli/bw_bc_bl/Nonliving_Things/Vehicles/tractor_18.jpg,Vehicles,0,tractor,0,17,17,86,70.5027657219,V_nV,2,70.5076146413,71.7754335254,1,2,0.641628073994,72.4376312072,3,0,0.180608093971,5,6.5,32,bw,99.188374404,2019_may_20_1558,011,256,20,5,xabi,Experiment_EEG_version,20,
Nonliving_Things,../experiment_stimuli/bw_bc_bl/Nonliving_Things/Kitchen_Uten/frying-pan_16.jpg,Kitchen_Uten,0,frying-pan,0,18,18,31,74.3511300361,V_nV,2,74.3580025731,75.6037555326,1,2,1.35318269918,76.9774948361,3,0,0.200646908488,5,6.5,32,bw,99.188374404,2019_may_20_1558,011,256,20,5,xabi,Experiment_EEG_version,20,
Living_Things,../experiment_stimuli/bw_bc_bl/Living_Things/Birds/pigeon_12.jpg,Birds,0,pigeon,0,19,19,63,78.9110418365,nV_V,2,78.9173205135,80.1436283118,1,2,0.57146010513,80.7356555287,1,1,0.180637183832,5,7.0,32,bw,99.188374404,2019_may_20_1558,011,256,20,5,xabi,Experiment_EEG_version,20,
Nonliving_Things,../experiment_stimuli/bw_bc_bl/Nonliving_Things/Tools/hammer_15.jpg,Tools,0,hammer,0,20,20,37,82.6491740792,V_nV,2,82.6540744336,83.911818936,1,2,0.581487679738,84.5138414606,1,1,0.170583835104,5,6.5,32,bw,99.188374404,2019_may_20_1558,011,256,20,5,xabi,Experiment_EEG_version,20,
Nonliving_Things,../experiment_stimuli/bw_bc_bl/Nonliving_Things/Kitchen_Uten/pot_9.jpg,Kitchen_Uten,0,pot,0,21,21,66,86.4173672744,V_nV,2,86.4229404691,87.7100771744,1,2,0.671683670138,88.4023045388,3,0,0.180613217875,5,6.5,32,bw,99.188374404,2019_may_20_1558,011,256,20,5,xabi,Experiment_EEG_version,20,
Nonliving_Things,../experiment_stimuli/bw_bc_bl/Nonliving_Things/Furniture/sofa_11.jpg,Furniture,0,sofa,0,22,22,78,90.3158340629,nV_V,1,90.3206572043,91.5885067611,1,1,0.571468698909,92.180513997,2,0,0.230721598025,5,7.0,32,bw,99.188374404,2019_may_20_1558,011,256,20,5,xabi,Experiment_EEG_version,20,
Living_Things,../experiment_stimuli/bw_bc_bl/Living_Things/Birds/rooster_22.jpg,Birds,0,rooster,0,23,23,70,94.1441555173,nV_V,2,94.1491376302,95.4068038968,1,2,0.551433343324,95.9788106371,1,1,0.250778528745,5,8.0,32,bw,99.188374404,2019_may_20_1558,011,256,20,5,xabi,Experiment_EEG_version,20,
Nonliving_Things,../experiment_stimuli/bw_bc_bl/Nonliving_Things/Kitchen_Uten/cup_15.jpg,Kitchen_Uten,0,cup,0,24,24,22,97.9624615215,V_nV,2,97.9675098964,99.2351297271,1,2,1.19281887938,100.448513575,2,0,0.230719661806,5,6.0,32,bw,99.188374404,2019_may_20_1558,011,256,20,5,xabi,Experiment_EEG_version,20,
Nonliving_Things,../experiment_stimuli/bw_bc_bl/Nonliving_Things/Buildings/cathedral_11.jpg,Buildings,0,cathedral,0,25,25,14,102.412135979,nV_V,1,102.417824124,103.674792107,1,1,0.47125662677,104.166604015,1,1,0.200660513714,5,6.0,32,bw,99.188374404,2019_may_20_1558,011,256,20,5,xabi,Experiment_EEG_version,20,
Nonliving_Things,../experiment_stimuli/bw_bc_bl/Nonliving_Things/Musical_Inst/violin_15.jpg,Musical_Inst,0,violin,0,26,26,92,106.100150053,nV_V,1,106.105056467,107.392869968,1,1,0.561458759941,107.98490406,2,0,0.180606488604,5,6.0,32,bw,99.188374404,2019_may_20_1558,011,256,20,5,xabi,Experiment_EEG_version,20,
Nonliving_Things,../experiment_stimuli/bw_bc_bl/Nonliving_Things/Musical_Inst/piano__4.jpg,Musical_Inst,0,piano,0,27,27,62,109.898405949,V_nV,2,109.903475737,111.181099628,1,2,0.711797076627,111.913443655,2,0,0.200650949497,5,8.0,32,bw,99.188374404,2019_may_20_1558,011,256,20,5,xabi,Experiment_EEG_version,20,
Nonliving_Things,../experiment_stimuli/bw_bc_bl/Nonliving_Things/Kitchen_Uten/saucepan_13.jpg,Kitchen_Uten,0,saucepan,0,28,28,71,113.847019271,nV_V,1,113.852622006,115.119657688,1,1,0.601533591631,115.741734094,2,0,0.330958368955,5,6.0,32,bw,99.188374404,2019_may_20_1558,011,256,20,5,xabi,Experiment_EEG_version,20,
Living_Things,../experiment_stimuli/bw_bc_bl/Living_Things/Insects/scorpion_11.jpg,Insects,0,scorpion,0,29,29,73,117.805596695,nV_V,2,117.811511035,119.068253879,0,1,0.671698000398,119.760508148,1,1,0.230722022941,5,6.0,32,bw,99.188374404,2019_may_20_1558,011,256,20,5,xabi,Experiment_EEG_version,20,
Living_Things,../experiment_stimuli/bw_bc_bl/Living_Things/Marine_creatures/shark_24.jpg,Marine_creatures,0,shark,0,30,30,75,121.724122395,nV_V,2,121.728929108,123.016831073,1,2,0.912210462033,123.949605808,2,0,0.310892679379,5,7.0,32,bw,99.188374404,2019_may_20_1558,011,256,20,5,xabi,Experiment_EEG_version,20,
Living_Things,../experiment_stimuli/bw_bc_bl/Living_Things/Animals/hippopotamus_12.jpg,Animals,0,hippopotamus,0,31,31,39,125.993397805,nV_V,2,125.999152952,127.276085571,1,2,3.9187466104,131.215391688,2,0,0.401088492828,5,6.0,32,bw,99.188374404,2019_may_20_1558,011,256,20,5,xabi,Experiment_EEG_version,20,
Living_Things,../experiment_stimuli/bw_bc_bl/Living_Things/Birds/pelican_2.jpg,Birds,0,pelican,0,32,32,60,133.349394009,nV_V,2,133.35619758,134.622068489,1,2,2.11482146801,136.757430543,3,0,1.01241889514,5,6.0,32,bw,99.188374404,2019_may_20_1558,011,256,20,5,xabi,Experiment_EEG_version,20,
Nonliving_Things,../experiment_stimuli/bw_bc_bl/Nonliving_Things/Musical_Inst/trumpet_3.jpg,Musical_Inst,0,trumpet,0,33,33,88,139.502762676,nV_V,1,139.507823679,140.755393282,1,1,0.691724138567,141.467686359,1,1,0.260814741952,5,6.5,32,bw,99.188374404,2019_may_20_1558,011,256,20,5,xabi,Experiment_EEG_version,20,
Living_Things,../experiment_stimuli/bw_bc_bl/Living_Things/Marine_creatures/sperm-whale_20.jpg,Marine_creatures,0,sperm-whale,0,34,34,80,143.461369502,nV_V,2,143.466255398,144.744059151,1,2,0.481288930285,145.245922347,2,0,0.18060987955,5,6.0,32,bw,99.188374404,2019_may_20_1558,011,256,20,5,xabi,Experiment_EEG_version,20,
Living_Things,../experiment_stimuli/bw_bc_bl/Living_Things/Animals/cat_4.jpg,Animals,0,cat,0,35,35,13,147.159411123,nV_V,2,147.166251533,148.432077761,1,2,0.571478605038,149.024099824,1,1,0.22069768887,5,6.5,32,bw,99.188374404,2019_may_20_1558,011,256,20,5,xabi,Experiment_EEG_version,20,
Living_Things,../experiment_stimuli/bw_bc_bl/Living_Things/Animals/horse_10.jpg,Animals,0,horse,0,36,36,40,150.977710533,V_nV,1,150.982669932,152.270422572,1,1,0.671689790324,152.962662839,2,0,0.220542909112,5,7.5,32,bw,99.188374404,2019_may_20_1558,011,256,20,5,xabi,Experiment_EEG_version,20,
Nonliving_Things,../experiment_stimuli/bw_bc_bl/Nonliving_Things/Kitchen_Uten/coking-pot_21.jpg,Kitchen_Uten,0,coking-pot,0,37,37,18,154.916273898,nV_V,1,154.921249725,156.198963317,1,1,0.852080146666,157.071589538,2,0,0.70174609276,5,6.5,32,bw,99.188374404,2019_may_20_1558,011,256,20,5,xabi,Experiment_EEG_version,20,
Living_Things,../experiment_stimuli/bw_bc_bl/Living_Things/Birds/ostrich_24.jpg,Birds,0,ostrich,0,38,38,56,159.506248726,V_nV,1,159.513215867,160.778926432,1,1,0.661663189647,161.461130579,2,0,0.230730086565,5,6.5,32,bw,99.188374404,2019_may_20_1558,011,256,20,5,xabi,Experiment_EEG_version,20,
Living_Things,../experiment_stimuli/bw_bc_bl/Living_Things/Marine_creatures/crab_20.jpg,Marine_creatures,0,crab,0,39,39,21,163.424782674,nV_V,2,163.429845711,164.687414122,1,2,0.641618029098,165.349592447,2,0,0.190624123556,5,7.0,32,bw,99.188374404,2019_may_20_1558,011,256,20,5,xabi,Experiment_EEG_version,20,
Living_Things,../experiment_stimuli/bw_bc_bl/Living_Things/Marine_creatures/killer-whale_7.jpg,Marine_creatures,0,killer-whale,0,40,40,43,167.273136669,V_nV,1,167.278026723,168.525758974,1,1,0.731817789958,169.27812038,1,1,0.200653867098,5,6.5,32,bw,99.188374404,2019_may_20_1558,011,256,20,5,xabi,Experiment_EEG_version,20,
Living_Things,../experiment_stimuli/bw_bc_bl/Living_Things/Birds/hummingbird_25.jpg,Birds,0,hummingbird,0,41,41,42,171.211702673,V_nV,1,171.216639019,172.474349616,1,1,0.441184989759,172.936073391,1,1,0.180629112408,5,6.5,32,bw,99.188374404,2019_may_20_1558,011,256,20,5,xabi,Experiment_EEG_version,20,
Nonliving_Things,../experiment_stimuli/bw_bc_bl/Nonliving_Things/Kitchen_Uten/teapot_9.jpg,Kitchen_Uten,0,teapot,0,42,42,83,174.849601855,nV_V,1,174.856447072,176.122277835,1,1,0.621574079501,176.764390124,1,1,0.210671166889,5,6.5,32,bw,99.188374404,2019_may_20_1558,011,256,20,5,xabi,Experiment_EEG_version,20,
Living_Things,../experiment_stimuli/bw_bc_bl/Living_Things/Animals/armadillo_5.jpg,Animals,0,armadillo,0,43,43,1,178.707996642,V_nV,1,178.713030099,180.010747631,1,1,0.902188804583,180.933461134,2,0,0.230720522813,5,6.0,32,bw,99.188374404,2019_may_20_1558,011,256,20,5,xabi,Experiment_EEG_version,20,
Nonliving_Things,../experiment_stimuli/bw_bc_bl/Nonliving_Things/Vehicles/car_21.jpg,Vehicles,0,car,0,44,44,11,182.897099061,nV_V,1,182.902996044,184.189810487,1,1,0.611555888201,184.82191048,3,0,0.230718011619,5,6.0,32,bw,99.188374404,2019_may_20_1558,011,256,20,5,xabi,Experiment_EEG_version,20,
Nonliving_Things,../experiment_stimuli/bw_bc_bl/Nonliving_Things/Furniture/couch_13.jpg,Furniture,0,couch,0,45,45,19,186.785556387,V_nV,2,186.79045431,188.048204022,1,2,0.701918439707,188.770678149,1,1,0.190649198368,5,6.0,32,bw,99.188374404,2019_may_20_1558,011,256,20,5,xabi,Experiment_EEG_version,20,
Living_Things,../experiment_stimuli/bw_bc_bl/Living_Things/Animals/zebra_15.jpg,Animals,0,zebra,0,46,46,95,190.694050506,nV_V,2,190.699153985,191.976744331,1,2,0.842055673711,192.839332045,2,0,0.210676772287,5,7.0,32,bw,99.188374404,2019_may_20_1558,011,256,20,5,xabi,Experiment_EEG_version,20,
Living_Things,../experiment_stimuli/bw_bc_bl/Living_Things/Animals/tiger_4.jpg,Animals,0,tiger,0,47,47,84,194.782962164,V_nV,1,194.790036518,196.055607137,1,1,1.04249321274,197.118642289,1,1,0.210678110598,5,6.0,32,bw,99.188374404,2019_may_20_1558,011,256,20,5,xabi,Experiment_EEG_version,20,
Living_Things,../experiment_stimuli/bw_bc_bl/Living_Things/Birds/penguin_23.jpg,Birds,0,penguin,0,48,48,61,199.062272656,nV_V,2,199.067172752,200.344938475,1,2,0.862087995512,201.227576067,2,0,0.180608180352,5,7.0,32,bw,99.188374404,2019_may_20_1558,011,256,20,5,xabi,Experiment_EEG_version,20,
Living_Things,../experiment_stimuli/bw_bc_bl/Living_Things/Marine_creatures/pomfret_5.jpg,Marine_creatures,0,pomfret,0,49,49,65,203.141113444,V_nV,1,203.145971506,204.413779304,0,2,0.561457662261,204.995797337,1,1,0.180609890609,5,7.0,32,bw,99.188374404,2019_may_20_1558,011,256,20,5,xabi,Experiment_EEG_version,20,
Living_Things,../experiment_stimuli/bw_bc_bl/Living_Things/Animals/giraffe_26.jpg,Animals,0,giraffe,0,50,50,32,206.909305113,nV_V,2,206.914281703,208.212036325,1,2,0.922075110255,209.15465143,3,0,0.240740112262,5,7.5,32,bw,99.188374404,2019_may_20_1558,011,256,20,5,xabi,Experiment_EEG_version,20,
Nonliving_Things,../experiment_stimuli/bw_bc_bl/Nonliving_Things/Kitchen_Uten/small-saucepan_3.jpg,Kitchen_Uten,0,small-saucepan,0,51,51,77,211.128476782,nV_V,1,211.133498541,212.401145608,1,1,0.511343015125,212.93305075,1,1,0.170438465197,5,7.5,32,bw,99.188374404,2019_may_20_1558,011,256,20,5,xabi,Experiment_EEG_version,20,
Nonliving_Things,../experiment_stimuli/bw_bc_bl/Nonliving_Things/Furniture/bedside-table_5.jpg,Furniture,0,bedside-table,0,52,52,6,214.836532997,nV_V,1,214.841445231,216.119227935,1,1,0.491290381411,216.631057902,2,0,0.260788054555,5,6.0,32,bw,99.188374404,2019_may_20_1558,011,256,20,5,xabi,Experiment_EEG_version,20,
Nonliving_Things,../experiment_stimuli/bw_bc_bl/Nonliving_Things/Kitchen_Uten/fondue_14.jpg,Kitchen_Uten,0,fondue,0,53,53,30,218.624793724,V_nV,2,218.629716477,219.897437852,1,2,1.09260482201,221.010610052,1,1,0.180605932255,5,7.5,32,bw,99.188374404,2019_may_20_1558,011,256,20,5,xabi,Experiment_EEG_version,20,
Nonliving_Things,../experiment_stimuli/bw_bc_bl/Nonliving_Things/Buildings/mill_17.jpg,Buildings,0,mill,0,54,54,53,222.924125467,V_nV,2,222.929134546,224.206808556,1,2,0.561462515383,224.788831209,1,1,0.180611826829,5,6.0,32,bw,99.188374404,2019_may_20_1558,011,256,20,5,xabi,Experiment_EEG_version,20,
Nonliving_Things,../experiment_stimuli/bw_bc_bl/Nonliving_Things/Musical_Inst/drum_15.jpg,Musical_Inst,0,drum,0,55,55,25,226.702333181,nV_V,1,226.70824866,228.015092861,1,1,0.491291745915,228.526925783,3,0,0.200649712933,5,7.0,32,bw,99.188374404,2019_may_20_1558,011,256,20,5,xabi,Experiment_EEG_version,20,
Nonliving_Things,../experiment_stimuli/bw_bc_bl/Nonliving_Things/Buildings/church_18.jpg,Buildings,0,church,0,56,56,17,230.460507941,V_nV,2,230.46554256,231.763239088,1,2,1.14270766475,232.926492831,3,0,0.230746255373,5,7.0,32,bw,99.188374404,2019_may_20_1558,011,256,20,5,xabi,Experiment_EEG_version,20,
Nonliving_Things,../experiment_stimuli/bw_bc_bl/Nonliving_Things/Vehicles/bus_10.jpg,Vehicles,0,bus,0,57,57,9,234.890131359,V_nV,2,234.894885659,236.162797869,1,2,0.601745799184,236.785112709,2,0,0.0603354255436,5,6.0,32,bw,99.188374404,2019_may_20_1558,011,256,20,5,xabi,Experiment_EEG_version,20,
Nonliving_Things,../experiment_stimuli/bw_bc_bl/Nonliving_Things/Furniture/lamp_11.jpg,Furniture,0,lamp,0,58,58,46,238.578153093,V_nV,2,238.582862537,239.830769673,1,2,0.761896618409,240.613225196,1,1,0.19063763821,5,6.5,32,bw,99.188374404,2019_may_20_1558,011,256,20,5,xabi,Experiment_EEG_version,20,
Living_Things,../experiment_stimuli/bw_bc_bl/Living_Things/Birds/magpie_25.jpg,Birds,0,magpie,0,59,59,51,242.536751355,V_nV,1,242.541579027,243.809428771,1,1,0.631601108471,244.461598022,1,1,0.230721695698,5,6.0,32,bw,99.188374404,2019_may_20_1558,011,256,20,5,xabi,Experiment_EEG_version,20,
Nonliving_Things,../experiment_stimuli/bw_bc_bl/Nonliving_Things/Furniture/armchair_15.jpg,Furniture,0,armchair,0,60,60,2,246.425209415,nV_V,1,246.432462728,247.737961772,1,1,0.701751059038,248.460256308,3,0,0.260779396631,5,6.5,32,bw,99.188374404,2019_may_20_1558,011,256,20,5,xabi,Experiment_EEG_version,20,
Nonliving_Things,../experiment_stimuli/bw_bc_bl/Nonliving_Things/Vehicles/train_18.jpg,Vehicles,0,train,0,61,61,87,250.453984645,nV_V,1,250.458841154,251.736659069,1,1,0.781939436565,252.539158181,2,0,0.230717131868,5,6.5,32,bw,99.188374404,2019_may_20_1558,011,256,20,5,xabi,Experiment_EEG_version,20,
Living_Things,../experiment_stimuli/bw_bc_bl/Living_Things/Animals/cow_22.jpg,Animals,0,cow,0,62,62,20,254.502769751,V_nV,1,254.50760314,255.775433998,1,1,1.12251443521,256.918519792,2,0,0.300890540471,5,6.0,32,bw,99.188374404,2019_may_20_1558,011,256,20,5,xabi,Experiment_EEG_version,20,
Living_Things,../experiment_stimuli/bw_bc_bl/Living_Things/Marine_creatures/dolphin_21.jpg,Marine_creatures,0,dolphin,0,63,63,23,258.952445803,V_nV,1,258.957296391,260.21508778,1,1,0.511185359326,260.746835679,1,1,0.220695203869,5,6.5,32,bw,99.188374404,2019_may_20_1558,011,256,20,5,xabi,Experiment_EEG_version,20,
Nonliving_Things,../experiment_stimuli/bw_bc_bl/Nonliving_Things/Vehicles/boat_1.jpg,Vehicles,0,boat,0,64,64,7,262.700618796,V_nV,2,262.705349837,263.993304599,1,2,0.68170840235,264.695550996,2,0,0.180625939509,5,6.0,32,bw,99.188374404,2019_may_20_1558,011,256,20,5,xabi,Experiment_EEG_version,20,
Living_Things,../experiment_stimuli/bw_bc_bl/Living_Things/Birds/owl_22.jpg,Birds,0,owl,0,65,65,57,266.609091915,nV_V,2,266.613976811,267.891778203,1,2,0.8320334038,268.754377372,2,0,0.330947489478,5,7.0,32,bw,99.188374404,2019_may_20_1558,011,256,20,5,xabi,Experiment_EEG_version,20,
Living_Things,../experiment_stimuli/bw_bc_bl/Living_Things/Animals/elephant_25.jpg,Animals,0,elephant,0,66,66,27,270.818234085,nV_V,2,270.823071467,272.090905696,1,2,0.86211289023,272.973562882,3,0,0.260778885684,5,6.0,32,bw,99.188374404,2019_may_20_1558,011,256,20,5,xabi,Experiment_EEG_version,20,
Living_Things,../experiment_stimuli/bw_bc_bl/Living_Things/Insects/ladybird_8.jpg,Insects,0,ladybird,0,67,67,45,274.967275412,nV_V,2,274.972062295,276.219884984,1,2,0.832040072535,277.072487766,1,1,0.180607612478,5,6.5,32,bw,99.188374404,2019_may_20_1558,011,256,20,5,xabi,Experiment_EEG_version,20,
Living_Things,../experiment_stimuli/bw_bc_bl/Living_Things/Marine_creatures/manatee_26.jpg,Marine_creatures,0,manatee,0,68,68,52,278.985994884,nV_V,2,278.990668712,280.25865932,1,2,0.49129548273,280.770502922,2,0,0.280821940512,5,6.0,32,bw,99.188374404,2019_may_20_1558,011,256,20,5,xabi,Experiment_EEG_version,20,
Living_Things,../experiment_stimuli/bw_bc_bl/Living_Things/Insects/butterfly_15.jpg,Insects,0,butterfly,0,69,69,10,282.784247262,nV_V,2,282.789168894,284.046896111,1,2,0.581480848836,284.648929876,3,0,0.210687005194,5,6.0,32,bw,99.188374404,2019_may_20_1558,011,256,20,5,xabi,Experiment_EEG_version,20,
Living_Things,../experiment_stimuli/bw_bc_bl/Living_Things/Birds/hen_16.jpg,Birds,0,hen,0,70,70,38,286.592527624,nV_V,2,286.597440204,287.825109599,1,2,0.461250123568,288.306913996,1,1,0.210675802315,5,6.0,32,bw,99.188374404,2019_may_20_1558,011,256,20,5,xabi,Experiment_EEG_version,20,
Nonliving_Things,../experiment_stimuli/bw_bc_bl/Nonliving_Things/Buildings/factory_26.jpg,Buildings,0,factory,0,71,71,28,290.250480187,V_nV,2,290.255275484,291.503105699,0,1,1.28301419283,292.806682726,1,1,0.200506831636,5,6.5,32,bw,99.188374404,2019_may_20_1558,011,256,20,5,xabi,Experiment_EEG_version,20,
Nonliving_Things,../experiment_stimuli/bw_bc_bl/Nonliving_Things/Furniture/bookcase_3.jpg,Furniture,0,bookcase,0,72,72,8,294.740241222,V_nV,2,294.74511207,296.022939025,1,2,0.461242608726,296.504730569,2,0,0.280839334824,5,6.5,32,bw,99.188374404,2019_may_20_1558,011,256,20,5,xabi,Experiment_EEG_version,20,
Nonliving_Things,../experiment_stimuli/bw_bc_bl/Nonliving_Things/Vehicles/motorbike_17.jpg,Vehicles,0,motorbike,0,73,73,54,298.518462522,V_nV,2,298.523417492,299.791129179,1,2,0.571468514856,300.383144809,2,0,0.381050103111,5,6.0,32,bw,99.188374404,2019_may_20_1558,011,256,20,5,xabi,Experiment_EEG_version,20,
Nonliving_Things,../experiment_stimuli/bw_bc_bl/Nonliving_Things/Buildings/palace_4.jpg,Buildings,0,palace,0,74,74,58,302.497101222,nV_V,1,302.501930164,303.75975347,0,2,0.571470518829,304.351773574,1,1,0.260783291305,5,6.5,32,bw,99.188374404,2019_may_20_1558,011,256,20,5,xabi,Experiment_EEG_version,20,
Living_Things,../experiment_stimuli/bw_bc_bl/Living_Things/Birds/sparrow_1.jpg,Birds,0,sparrow,0,75,75,79,306.345471683,V_nV,1,306.350403375,307.638179805,1,1,0.751853318652,308.410584457,3,0,0.280822590808,5,6.0,32,bw,99.188374404,2019_may_20_1558,011,256,20,5,xabi,Experiment_EEG_version,20,
Living_Things,../experiment_stimuli/bw_bc_bl/Living_Things/Animals/lioness_9.jpg,Animals,0,lioness,0,76,76,48,310.424336906,nV_V,2,310.430590907,311.686995756,1,2,0.972331277677,312.679890615,1,1,0.350982127711,5,6.0,32,bw,99.188374404,2019_may_20_1558,011,256,20,5,xabi,Experiment_EEG_version,20,
Nonliving_Things,../experiment_stimuli/bw_bc_bl/Nonliving_Things/Vehicles/plane_7.jpg,Vehicles,0,plane,0,77,77,64,314.763802492,nV_V,1,314.768690523,316.046467716,1,1,0.581487927819,316.648501895,1,1,0.401111067506,5,6.5,32,bw,99.188374404,2019_may_20_1558,011,256,20,5,xabi,Experiment_EEG_version,20,
Living_Things,../experiment_stimuli/bw_bc_bl/Living_Things/Birds/toucan_16.jpg,Birds,0,toucan,0,78,78,85,318.782506468,V_nV,1,318.787300294,320.075220759,1,1,0.852085116203,320.947843367,2,0,0.40109894739,5,6.5,32,bw,99.188374404,2019_may_20_1558,011,256,20,5,xabi,Experiment_EEG_version,20,
Nonliving_Things,../experiment_stimuli/bw_bc_bl/Nonliving_Things/Furniture/wardrobe_14.jpg,Furniture,0,wardrobe,0,79,79,93,323.081856711,V_nV,2,323.08659959,324.364546551,1,2,0.511337650823,324.896436813,3,0,0.200652389554,5,8.0,32,bw,99.188374404,2019_may_20_1558,011,256,20,5,xabi,Experiment_EEG_version,20,
Nonliving_Things,../experiment_stimuli/bw_bc_bl/Nonliving_Things/Musical_Inst/tuba_2.jpg,Musical_Inst,0,tuba,0,80,80,89,326.830002543,V_nV,2,326.83499908,328.092649121,1,2,0.421132175718,328.534328499,3,0,0.170574192191,5,7.5,32,bw,99.188374404,2019_may_20_1558,011,256,20,5,xabi,Experiment_EEG_version,20,
Living_Things,../experiment_stimuli/bw_bc_bl/Living_Things/Animals/lynx_22.jpg,Animals,0,lynx,0,81,81,50,330.437852658,nV_V,2,330.442678086,331.680461674,1,2,0.621574368794,332.322575982,1,1,0.270802798332,5,6.0,32,bw,99.188374404,2019_may_20_1558,011,256,20,5,xabi,Experiment_EEG_version,20,
Nonliving_Things,../experiment_stimuli/bw_bc_bl/Nonliving_Things/Buildings/house_2.jpg,Buildings,0,house,0,82,82,41,334.326299173,nV_V,1,334.331174712,335.588955857,1,1,1.22288355022,336.83238182,1,1,0.250762577751,5,6.5,32,bw,99.188374404,2019_may_20_1558,011,256,20,5,xabi,Experiment_EEG_version,20,
Living_Things,../experiment_stimuli/bw_bc_bl/Living_Things/Marine_creatures/whale_20.jpg,Marine_creatures,0,whale,0,83,83,94,338.816060741,nV_V,2,338.820849146,340.098751593,1,2,0.431164595881,340.550457684,2,0,0.220696166507,5,6.0,32,bw,99.188374404,2019_may_20_1558,011,256,20,5,xabi,Experiment_EEG_version,20,
Living_Things,../experiment_stimuli/bw_bc_bl/Living_Things/Birds/barn-owl_16.jpg,Birds,0,barn-owl,0,84,84,4,342.504076991,nV_V,2,342.508843302,343.776758471,1,2,0.471200917265,344.268543845,1,1,0.230737225735,5,6.0,32,bw,99.188374404,2019_may_20_1558,011,256,20,5,xabi,Experiment_EEG_version,20,
Living_Things,../experiment_stimuli/bw_bc_bl/Living_Things/Insects/dragonfly_1.jpg,Insects,0,dragonfly,0,85,85,24,346.232186813,nV_V,2,346.237025781,347.524896672,1,2,0.681707142736,348.227169967,3,0,0.30087102938,5,6.5,32,bw,99.188374404,2019_may_20_1558,011,256,20,5,xabi,Experiment_EEG_version,20,
Nonliving_Things,../experiment_stimuli/bw_bc_bl/Nonliving_Things/Furniture/filling-cabinet_6.jpg,Furniture,0,filling-cabinet,0,86,86,29,350.260949961,nV_V,1,350.265696021,351.533609979,1,1,0.731830346165,352.286007105,1,1,0.280832917895,5,7.5,32,bw,99.188374404,2019_may_20_1558,011,256,20,5,xabi,Experiment_EEG_version,20,
Living_Things,../experiment_stimuli/bw_bc_bl/Living_Things/Birds/goose_17.jpg,Birds,0,goose,0,87,87,34,354.29972171,V_nV,1,354.30448333,355.582410655,1,1,0.731826229487,356.334816985,3,0,0.310907156323,5,8.0,32,bw,99.188374404,2019_may_20_1558,011,256,20,5,xabi,Experiment_EEG_version,20,
Living_Things,../experiment_stimuli/bw_bc_bl/Living_Things/Birds/partridge_4.jpg,Birds,0,partridge,0,88,88,59,358.378588501,nV_V,2,358.383475333,359.631215144,1,2,0.59150679945,360.243282078,1,1,0.260784671176,5,6.5,32,bw,99.188374404,2019_may_20_1558,011,256,20,5,xabi,Experiment_EEG_version,20,
Nonliving_Things,../experiment_stimuli/bw_bc_bl/Nonliving_Things/Buildings/granary_3.jpg,Buildings,0,granary,0,89,89,35,362.236976382,V_nV,2,362.241928499,363.519666929,1,2,0.641460080049,364.181682997,3,0,0.260782682337,5,6.5,32,bw,99.188374404,2019_may_20_1558,011,256,20,5,xabi,Experiment_EEG_version,20,
Nonliving_Things,../experiment_stimuli/bw_bc_bl/Nonliving_Things/Furniture/rocking-chair_16.jpg,Furniture,0,rocking-chair,0,90,90,69,366.175539976,nV_V,1,366.180509852,367.438187096,1,1,0.591513690073,368.050252146,3,0,0.250763916411,5,6.0,32,bw,99.188374404,2019_may_20_1558,011,256,20,5,xabi,Experiment_EEG_version,20,
Nonliving_Things,../experiment_stimuli/bw_bc_bl/Nonliving_Things/Vehicles/van_9.jpg,Vehicles,0,van,0,91,91,91,370.033924192,V_nV,2,370.038779723,371.276530414,0,1,0.882139347726,372.179249557,2,0,0.230725229485,5,6.0,32,bw,99.188374404,2019_may_20_1558,011,256,20,5,xabi,Experiment_EEG_version,20,
Nonliving_Things,../experiment_stimuli/bw_bc_bl/Nonliving_Things/Musical_Inst/guitar_7.jpg,Musical_Inst,0,guitar,0,92,92,36,374.142853992,V_nV,2,374.147640146,375.375441332,0,1,1.12266366603,376.518668324,1,1,0.200656295288,5,7.0,32,bw,99.188374404,2019_may_20_1558,011,256,20,5,xabi,Experiment_EEG_version,20,
Nonliving_Things,../experiment_stimuli/bw_bc_bl/Nonliving_Things/Musical_Inst/saxophone_24.jpg,Musical_Inst,0,saxophone,0,93,93,72,378.452224595,V_nV,2,378.457265572,379.704854757,0,1,0.431163592031,380.156574543,1,1,0.230713334866,5,8.0,32,bw,99.188374404,2019_may_20_1558,011,256,20,5,xabi,Experiment_EEG_version,20,
Living_Things,../experiment_stimuli/bw_bc_bl/Living_Things/Animals/tapir_23.jpg,Animals,0,tapir,0,94,94,82,382.120192854,V_nV,1,382.124980311,383.40289045,1,1,0.52136188664,383.944817895,3,0,0.290853435989,5,8.0,32,bw,99.188374404,2019_may_20_1558,011,256,20,5,xabi,Experiment_EEG_version,20,
Living_Things,../experiment_stimuli/bw_bc_bl/Living_Things/Birds/duck_8.jpg,Birds,0,duck,0,95,95,26,385.96857019,V_nV,1,385.973413444,387.221194893,1,1,0.731839620275,387.97358702,2,0,0.210673907655,5,8.0,32,bw,99.188374404,2019_may_20_1558,011,256,20,5,xabi,Experiment_EEG_version,20,
