category,probe_path,subcategory,fixation_duration,label,trials.thisRepN,trials.thisTrialN,trials.thisN,trials.thisIndex,image_onset_time,response_window,correctAns,probe_onset,discrim_resptime,response.corr,response.keys,response.rt,visible_resptime,visible.keys,visible.corr,visible.rt,probeFrames,jitter2,n_square,experiment_color,frameRate,date,session,image_size,premask_dur,probeFrames,participant,expName,postmask_dur,
Nonliving_Things,../experiment_stimuli/bw_bc_bl/Nonliving_Things/Musical_Inst/tuba_8.jpg,Musical_Inst,0,tuba,0,0,0,89,3.71917892375,nV_V,1,3.73910518724,5.00184507633,1,1,1.18280575215,6.21549877408,3,0,0.872112513636,5,6.0,32,bw,99.7807366318,2019_may_15_1628,002,256,20,5,xabier,Experiment_EEG_version,20,
Nonliving_Things,../experiment_stimuli/bw_bc_bl/Nonliving_Things/Musical_Inst/trumpet_18.jpg,Musical_Inst,0,trumpet,0,1,1,88,8.82024297758,V_nV,2,8.82523441373,10.0728656471,1,2,0.872122367029,10.9655617385,2,0,0.401107984828,5,7.5,32,bw,99.7807366318,2019_may_15_1628,002,256,20,5,xabier,Experiment_EEG_version,20,
Living_Things,../experiment_stimuli/bw_bc_bl/Living_Things/Animals/giraffe_13.jpg,Animals,0,giraffe,0,2,2,32,13.0995412143,nV_V,2,13.1044278585,14.3421458995,1,2,1.41329801502,15.7759866504,1,1,0.451194936642,5,6.0,32,bw,99.7807366318,2019_may_15_1628,002,256,20,5,xabier,Experiment_EEG_version,20,
Nonliving_Things,../experiment_stimuli/bw_bc_bl/Nonliving_Things/Furniture/couch_5.jpg,Furniture,0,couch,0,3,3,19,17.9601104718,V_nV,2,17.9654791622,19.2227548549,1,2,0.882143862545,20.1254805807,1,1,0.431165438029,5,6.5,32,bw,99.7807366318,2019_may_15_1628,002,256,20,5,xabier,Experiment_EEG_version,20,
Nonliving_Things,../experiment_stimuli/bw_bc_bl/Nonliving_Things/Kitchen_Uten/pot_12.jpg,Kitchen_Uten,0,pot,0,4,4,66,22.2895159569,nV_V,1,22.2946355641,23.5722052148,1,1,0.892169880914,24.4849235152,3,0,0.350983616314,5,6.0,32,bw,99.7807366318,2019_may_15_1628,002,256,20,5,xabier,Experiment_EEG_version,20,
Living_Things,../experiment_stimuli/bw_bc_bl/Living_Things/Birds/hummingbird_13.jpg,Birds,0,hummingbird,0,5,5,42,26.5688139941,nV_V,2,26.5736625,27.8314623698,0,1,1.38307500433,29.2351099064,1,1,0.411122691003,5,6.5,32,bw,99.7807366318,2019_may_15_1628,002,256,20,5,xabier,Experiment_EEG_version,20,
Living_Things,../experiment_stimuli/bw_bc_bl/Living_Things/Birds/sparrow_23.jpg,Birds,0,sparrow,0,6,6,79,31.3792744884,nV_V,2,31.3841297837,32.6619595846,0,1,1.05235027848,33.734866873,1,1,0.300874980632,5,7.0,32,bw,99.7807366318,2019_may_15_1628,002,256,20,5,xabier,Experiment_EEG_version,20,
Living_Things,../experiment_stimuli/bw_bc_bl/Living_Things/Marine_creatures/shark_21.jpg,Marine_creatures,0,shark,0,7,7,75,35.7688394388,nV_V,2,35.7742319333,37.0815836533,1,2,1.48345688998,38.585571366,3,0,0.792032303521,5,6.5,32,bw,99.7807366318,2019_may_15_1628,002,256,20,5,xabier,Experiment_EEG_version,20,
Nonliving_Things,../experiment_stimuli/bw_bc_bl/Nonliving_Things/Furniture/rocking-chair_2.jpg,Furniture,0,rocking-chair,0,8,8,69,41.1104272889,V_nV,2,41.1153767819,42.3931128813,1,2,1.78410920827,44.1977873665,3,0,0.360851783422,5,6.5,32,bw,99.7807366318,2019_may_15_1628,002,256,20,5,xabier,Experiment_EEG_version,20,
Living_Things,../experiment_stimuli/bw_bc_bl/Living_Things/Birds/ostrich_3.jpg,Birds,0,ostrich,0,9,9,56,46.2916826418,nV_V,2,46.296606451,47.5543303558,1,2,1.09259779239,48.6674766731,2,0,0.37102699466,5,6.0,32,bw,99.7807366318,2019_may_15_1628,002,256,20,5,xabier,Experiment_EEG_version,20,
Nonliving_Things,../experiment_stimuli/bw_bc_bl/Nonliving_Things/Vehicles/van_0.jpg,Vehicles,0,van,0,10,10,91,50.7714233724,V_nV,2,50.7762857353,52.02404423,1,2,1.39324912929,53.4478812295,2,0,0.340979214408,5,7.0,32,bw,99.7807366318,2019_may_15_1628,002,256,20,5,xabier,Experiment_EEG_version,20,
Nonliving_Things,../experiment_stimuli/bw_bc_bl/Nonliving_Things/Kitchen_Uten/fondue_1.jpg,Kitchen_Uten,0,fondue,0,11,11,30,55.5217437652,V_nV,2,55.5266048538,56.7643610783,1,2,0.93225261115,57.7171435343,1,1,0.371024397085,5,6.0,32,bw,99.7807366318,2019_may_15_1628,002,256,20,5,xabier,Experiment_EEG_version,20,
Nonliving_Things,../experiment_stimuli/bw_bc_bl/Nonliving_Things/Musical_Inst/drum_3.jpg,Musical_Inst,0,drum,0,12,12,25,59.8210948952,V_nV,2,59.8260281178,61.0937587138,1,2,0.791784363682,61.9061135459,2,0,0.45119757182,5,7.5,32,bw,99.7807366318,2019_may_15_1628,002,256,20,5,xabier,Experiment_EEG_version,20,
Living_Things,../experiment_stimuli/bw_bc_bl/Living_Things/Animals/horse_26.jpg,Animals,0,horse,0,13,13,40,64.0903956321,nV_V,2,64.0952698819,65.3530180757,1,2,1.09260838979,66.4661890883,2,0,0.38104912173,5,7.0,32,bw,99.7807366318,2019_may_15_1628,002,256,20,5,xabier,Experiment_EEG_version,20,
Nonliving_Things,../experiment_stimuli/bw_bc_bl/Nonliving_Things/Buildings/cathedral_13.jpg,Buildings,0,cathedral,0,14,14,14,68.5801546512,V_nV,2,68.5850525399,69.8327555882,0,1,1.68410606147,71.5374293927,1,1,0.361005051527,5,7.0,32,bw,99.7807366318,2019_may_15_1628,002,256,20,5,xabier,Experiment_EEG_version,20,
Nonliving_Things,../experiment_stimuli/bw_bc_bl/Nonliving_Things/Furniture/lamp_16.jpg,Furniture,0,lamp,0,15,15,46,73.6311122386,nV_V,1,73.6371507616,74.893756325,1,1,2.23509217415,77.1494032012,2,0,0.320978752919,5,7.5,32,bw,99.7807366318,2019_may_15_1628,002,256,20,5,xabier,Experiment_EEG_version,20,
Nonliving_Things,../experiment_stimuli/bw_bc_bl/Nonliving_Things/Tools/hammer_23.jpg,Tools,0,hammer,0,16,16,37,79.2032260355,nV_V,1,79.2080437408,80.4558449156,1,1,0.892164339311,81.368564408,1,1,0.290851744357,5,6.0,32,bw,99.7807366318,2019_may_15_1628,002,256,20,5,xabier,Experiment_EEG_version,20,
Living_Things,../experiment_stimuli/bw_bc_bl/Living_Things/Marine_creatures/lobster_14.jpg,Marine_creatures,0,lobster,0,17,17,49,83.3923315073,V_nV,1,83.3974160434,84.6649947129,0,2,0.962330567418,85.6478896779,2,0,0.361005517654,5,6.5,32,bw,99.7807366318,2019_may_15_1628,002,256,20,5,xabier,Experiment_EEG_version,20,
Nonliving_Things,../experiment_stimuli/bw_bc_bl/Nonliving_Things/Musical_Inst/guitar_1.jpg,Musical_Inst,0,guitar,0,18,18,36,87.7417914119,nV_V,1,87.7467047626,89.0044303025,1,1,0.872125648777,89.8970941913,2,0,0.300865754834,5,6.5,32,bw,99.7807366318,2019_may_15_1628,002,256,20,5,xabier,Experiment_EEG_version,20,
Living_Things,../experiment_stimuli/bw_bc_bl/Living_Things/Animals/turtle_9.jpg,Animals,0,turtle,0,19,19,90,91.9308896057,nV_V,2,91.9357286942,93.1835201774,1,2,2.47560432751,95.6796570264,1,1,0.250764946453,5,6.5,32,bw,99.7807366318,2019_may_15_1628,002,256,20,5,xabier,Experiment_EEG_version,20,
Nonliving_Things,../experiment_stimuli/bw_bc_bl/Nonliving_Things/Musical_Inst/violin_7.jpg,Musical_Inst,0,violin,0,20,20,92,97.6633476811,V_nV,2,97.6684642207,98.9460385516,1,2,1.71395472821,100.680552278,2,0,0.751704065013,5,6.5,32,bw,99.7807366318,2019_may_15_1628,002,256,20,5,xabier,Experiment_EEG_version,20,
Nonliving_Things,../experiment_stimuli/bw_bc_bl/Nonliving_Things/Furniture/table_15.jpg,Furniture,0,table,0,21,21,81,103.165307606,nV_V,1,103.170170131,104.437978293,1,1,0.781919903005,105.240440925,2,0,0.401174476137,5,6.5,32,bw,99.7807366318,2019_may_15_1628,002,256,20,5,xabier,Experiment_EEG_version,20,
Living_Things,../experiment_stimuli/bw_bc_bl/Living_Things/Animals/zebra_2.jpg,Animals,0,zebra,0,22,22,95,107.374455938,V_nV,1,107.380812012,108.637100787,1,1,1.16276882868,109.820414547,3,0,0.26078426512,5,6.0,32,bw,99.7807366318,2019_may_15_1628,002,256,20,5,xabier,Experiment_EEG_version,20,
Nonliving_Things,../experiment_stimuli/bw_bc_bl/Nonliving_Things/Buildings/house_24.jpg,Buildings,0,house,0,23,23,41,111.814109513,V_nV,2,111.818892697,113.056709289,0,1,0.932261546957,114.009557985,1,1,0.280862398678,5,6.5,32,bw,99.7807366318,2019_may_15_1628,002,256,20,5,xabier,Experiment_EEG_version,20,
Living_Things,../experiment_stimuli/bw_bc_bl/Living_Things/Marine_creatures/whale_16.jpg,Marine_creatures,0,whale,0,24,24,94,116.023256818,V_nV,1,116.028109429,117.275878522,1,1,0.681707936106,117.978153851,2,0,0.280829572002,5,6.5,32,bw,99.7807366318,2019_may_15_1628,002,256,20,5,xabier,Experiment_EEG_version,20,
Living_Things,../experiment_stimuli/bw_bc_bl/Living_Things/Animals/tiger_13.jpg,Animals,0,tiger,0,25,25,84,119.99188609,V_nV,1,119.996778641,121.234487185,0,2,0.751864965423,122.006911706,1,1,0.290854943334,5,6.0,32,bw,99.7807366318,2019_may_15_1628,002,256,20,5,xabier,Experiment_EEG_version,20,
Nonliving_Things,../experiment_stimuli/bw_bc_bl/Nonliving_Things/Buildings/church_13.jpg,Buildings,0,church,0,26,26,17,124.030682572,nV_V,1,124.03563393,125.293318354,1,1,0.892161895637,126.216072477,2,0,0.300882164622,5,6.0,32,bw,99.7807366318,2019_may_15_1628,002,256,20,5,xabier,Experiment_EEG_version,20,
Nonliving_Things,../experiment_stimuli/bw_bc_bl/Nonliving_Things/Musical_Inst/piano__18.jpg,Musical_Inst,0,piano,0,27,27,62,128.249840076,nV_V,1,128.254759028,129.502466787,1,1,0.771781916847,130.294811435,1,1,0.270811234368,5,6.0,32,bw,99.7807366318,2019_may_15_1628,002,256,20,5,xabier,Experiment_EEG_version,20,
Nonliving_Things,../experiment_stimuli/bw_bc_bl/Nonliving_Things/Buildings/granary_12.jpg,Buildings,0,granary,0,28,28,35,132.2986452,nV_V,1,132.303659124,133.571302229,1,1,1.12266550062,134.714507905,2,0,0.320921370294,5,7.0,32,bw,99.7807366318,2019_may_15_1628,002,256,20,5,xabier,Experiment_EEG_version,20,
Nonliving_Things,../experiment_stimuli/bw_bc_bl/Nonliving_Things/Buildings/factory_19.jpg,Buildings,0,factory,0,29,29,28,136.768346581,V_nV,2,136.773159032,138.031005198,1,2,1.11265842954,139.164206562,1,1,0.280848379945,5,6.5,32,bw,99.7807366318,2019_may_15_1628,002,256,20,5,xabier,Experiment_EEG_version,20,
Living_Things,../experiment_stimuli/bw_bc_bl/Living_Things/Marine_creatures/sperm-whale_3.jpg,Marine_creatures,0,sperm-whale,0,30,30,80,141.17793355,V_nV,1,141.182698783,142.45060794,0,2,0.932270513149,143.40343717,1,1,0.300887525431,5,6.0,32,bw,99.7807366318,2019_may_15_1628,002,256,20,5,xabier,Experiment_EEG_version,20,
Nonliving_Things,../experiment_stimuli/bw_bc_bl/Nonliving_Things/Tools/axe_21.jpg,Tools,0,axe,0,31,31,3,145.437191758,V_nV,2,145.442124484,146.739926071,1,2,0.601536170579,147.362016485,1,1,0.270797753357,5,6.0,32,bw,99.7807366318,2019_may_15_1628,002,256,20,5,xabier,Experiment_EEG_version,20,
Nonliving_Things,../experiment_stimuli/bw_bc_bl/Nonliving_Things/Buildings/castle_16.jpg,Buildings,0,castle,0,32,32,12,149.365743593,nV_V,1,149.373297184,150.678484988,1,1,1.03246348433,151.731500245,2,0,0.320918441517,5,7.0,32,bw,99.7807366318,2019_may_15_1628,002,256,20,5,xabier,Experiment_EEG_version,20,
Living_Things,../experiment_stimuli/bw_bc_bl/Living_Things/Insects/dragonfly_3.jpg,Insects,0,dragonfly,0,33,33,24,153.785342955,nV_V,2,153.790379902,155.088082249,1,2,1.13268084207,156.241311252,3,0,0.320921065519,5,6.5,32,bw,99.7807366318,2019_may_15_1628,002,256,20,5,xabier,Experiment_EEG_version,20,
Nonliving_Things,../experiment_stimuli/bw_bc_bl/Nonliving_Things/Furniture/chair_9.jpg,Furniture,0,chair,0,34,34,15,158.295157127,nV_V,1,158.300954841,159.567811235,1,1,0.89217272657,160.480547679,2,0,0.210684136604,5,6.0,32,bw,99.7807366318,2019_may_15_1628,002,256,20,5,xabier,Experiment_EEG_version,20,
Living_Things,../experiment_stimuli/bw_bc_bl/Living_Things/Marine_creatures/pomfret_14.jpg,Marine_creatures,0,pomfret,0,35,35,65,162.42412625,V_nV,1,162.429916513,163.686761381,1,1,1.95447094133,165.661796201,2,0,0.361027066247,5,8.0,32,bw,99.7807366318,2019_may_15_1628,002,256,20,5,xabier,Experiment_EEG_version,20,
Living_Things,../experiment_stimuli/bw_bc_bl/Living_Things/Birds/barn-owl_4.jpg,Birds,0,barn-owl,0,36,36,4,167.755704901,V_nV,1,167.760639676,169.00833339,0,2,1.35317231226,170.382063156,1,1,0.28083001927,5,7.5,32,bw,99.7807366318,2019_may_15_1628,002,256,20,5,xabier,Experiment_EEG_version,20,
Nonliving_Things,../experiment_stimuli/bw_bc_bl/Nonliving_Things/Vehicles/car_24.jpg,Vehicles,0,car,0,37,37,11,172.395804681,nV_V,1,172.40087689,173.67848422,1,1,0.922227544244,174.621269418,3,0,0.320925197331,5,6.0,32,bw,99.7807366318,2019_may_15_1628,002,256,20,5,xabier,Experiment_EEG_version,20,
Living_Things,../experiment_stimuli/bw_bc_bl/Living_Things/Birds/partridge_8.jpg,Birds,0,partridge,0,38,38,59,176.675095511,nV_V,2,176.681093252,177.937740722,1,2,2.09477324388,180.053074186,2,0,0.290865913033,5,6.0,32,bw,99.7807366318,2019_may_15_1628,002,256,20,5,xabier,Experiment_EEG_version,20,
Living_Things,../experiment_stimuli/bw_bc_bl/Living_Things/Birds/magpie_23.jpg,Birds,0,magpie,0,39,39,51,182.076845199,V_nV,1,182.081802523,183.329460019,1,1,1.16259438742,184.512625755,2,0,0.220701681334,5,7.5,32,bw,99.7807366318,2019_may_15_1628,002,256,20,5,xabier,Experiment_EEG_version,20,
Living_Things,../experiment_stimuli/bw_bc_bl/Living_Things/Animals/cheetah_18.jpg,Animals,0,cheetah,0,40,40,16,186.466385251,V_nV,1,186.472307874,187.708981963,1,1,0.902193662012,188.631721376,1,1,0.280832181103,5,6.0,32,bw,99.7807366318,2019_may_15_1628,002,256,20,5,xabier,Experiment_EEG_version,20,
Nonliving_Things,../experiment_stimuli/bw_bc_bl/Nonliving_Things/Furniture/Chest-of-drawers_4.jpg,Furniture,0,Chest-of-drawers,0,41,41,0,190.645467397,V_nV,2,190.65028711,191.908111795,1,2,0.731811023201,192.66046534,1,1,0.391066808952,5,7.5,32,bw,99.7807366318,2019_may_15_1628,002,256,20,5,xabier,Experiment_EEG_version,20,
Living_Things,../experiment_stimuli/bw_bc_bl/Living_Things/Birds/pelican_25.jpg,Birds,0,pelican,0,42,42,60,194.784460823,V_nV,1,194.790777676,196.077173941,1,1,1.62375439203,197.721477896,2,0,0.270655398373,5,6.5,32,bw,99.7807366318,2019_may_15_1628,002,256,20,5,xabier,Experiment_EEG_version,20,
Nonliving_Things,../experiment_stimuli/bw_bc_bl/Nonliving_Things/Kitchen_Uten/saucepan_17.jpg,Kitchen_Uten,0,saucepan,0,43,43,71,199.725199707,nV_V,1,199.731066277,201.007918961,1,1,3.66819840576,204.696633332,3,0,1.05251019355,5,7.5,32,bw,99.7807366318,2019_may_15_1628,002,256,20,5,xabier,Experiment_EEG_version,20,
Living_Things,../experiment_stimuli/bw_bc_bl/Living_Things/Birds/hen_8.jpg,Birds,0,hen,0,44,44,38,207.482087853,V_nV,1,207.486969502,208.74470859,1,1,1.72397305444,210.489244365,1,1,0.330788852996,5,6.5,32,bw,99.7807366318,2019_may_15_1628,002,256,20,5,xabier,Experiment_EEG_version,20,
Nonliving_Things,../experiment_stimuli/bw_bc_bl/Nonliving_Things/Vehicles/ship_20.jpg,Vehicles,0,ship,0,45,45,76,212.553086549,V_nV,2,212.558027572,213.845806497,1,2,0.862104608212,214.728464375,1,1,0.350981353316,5,8.0,32,bw,99.7807366318,2019_may_15_1628,002,256,20,5,xabier,Experiment_EEG_version,20,
Nonliving_Things,../experiment_stimuli/bw_bc_bl/Nonliving_Things/Vehicles/boat_17.jpg,Vehicles,0,boat,0,46,46,7,216.812347535,nV_V,1,216.817199492,218.115080283,1,1,1.27301544161,219.408665231,2,0,0.34096112079,5,7.0,32,bw,99.7807366318,2019_may_15_1628,002,256,20,5,xabier,Experiment_EEG_version,20,
Living_Things,../experiment_stimuli/bw_bc_bl/Living_Things/Birds/penguin_25.jpg,Birds,0,penguin,0,47,47,61,221.482522019,V_nV,1,221.487414663,222.775206077,1,1,1.50351131707,224.299287942,3,0,0.421138581354,5,6.0,32,bw,99.7807366318,2019_may_15_1628,002,256,20,5,xabier,Experiment_EEG_version,20,
Living_Things,../experiment_stimuli/bw_bc_bl/Living_Things/Animals/cow_25.jpg,Animals,0,cow,0,48,48,20,226.453302785,V_nV,1,226.458192813,227.725981348,1,1,0.822012084653,228.568527905,2,0,0.391069854028,5,7.5,32,bw,99.7807366318,2019_may_15_1628,002,256,20,5,xabier,Experiment_EEG_version,20,
Living_Things,../experiment_stimuli/bw_bc_bl/Living_Things/Birds/goose_0.jpg,Birds,0,goose,0,49,49,34,230.69251646,V_nV,1,230.699630189,231.955161166,1,1,0.972346273949,232.948067131,3,0,0.300878743641,5,6.0,32,bw,99.7807366318,2019_may_15_1628,002,256,20,5,xabier,Experiment_EEG_version,20,
Nonliving_Things,../experiment_stimuli/bw_bc_bl/Nonliving_Things/Furniture/sofa_20.jpg,Furniture,0,sofa,0,50,50,78,234.98184715,V_nV,2,234.986765231,236.224441009,1,2,0.621578891063,236.86697501,1,1,0.29085124447,5,6.0,32,bw,99.7807366318,2019_may_15_1628,002,256,20,5,xabier,Experiment_EEG_version,20,
Living_Things,../experiment_stimuli/bw_bc_bl/Living_Things/Animals/tapir_22.jpg,Animals,0,tapir,0,51,51,82,238.890332442,nV_V,2,238.895192207,240.163006095,1,2,1.07255995506,241.256106124,2,0,0.280828861753,5,6.0,32,bw,99.7807366318,2019_may_15_1628,002,256,20,5,xabier,Experiment_EEG_version,20,
Living_Things,../experiment_stimuli/bw_bc_bl/Living_Things/Insects/butterfly_7.jpg,Insects,0,butterfly,0,52,52,10,243.26985454,V_nV,1,243.274668039,244.532504698,1,1,0.922238025232,245.475302041,3,0,0.240744033363,5,6.0,32,bw,99.7807366318,2019_may_15_1628,002,256,20,5,xabier,Experiment_EEG_version,20,
Living_Things,../experiment_stimuli/bw_bc_bl/Living_Things/Birds/toucan_3.jpg,Birds,0,toucan,0,53,53,85,247.448948178,nV_V,2,247.453888461,248.691543142,1,2,1.14254957682,249.854644574,1,1,0.300878123497,5,6.5,32,bw,99.7807366318,2019_may_15_1628,002,256,20,5,xabier,Experiment_EEG_version,20,
Nonliving_Things,../experiment_stimuli/bw_bc_bl/Nonliving_Things/Furniture/filling-cabinet_4.jpg,Furniture,0,filling-cabinet,0,54,54,29,251.888613975,nV_V,1,251.893540367,253.151239073,1,1,1.25296465715,254.424761672,1,1,0.260780742508,5,6.5,32,bw,99.7807366318,2019_may_15_1628,002,256,20,5,xabier,Experiment_EEG_version,20,
Living_Things,../experiment_stimuli/bw_bc_bl/Living_Things/Animals/elephant_4.jpg,Animals,0,elephant,0,55,55,27,256.418448153,V_nV,1,256.423308791,257.691108145,1,1,1.90436652361,259.616022423,2,0,0.541398832807,5,6.0,32,bw,99.7807366318,2019_may_15_1628,002,256,20,5,xabier,Experiment_EEG_version,20,
Nonliving_Things,../experiment_stimuli/bw_bc_bl/Nonliving_Things/Furniture/bed_14.jpg,Furniture,0,bed,0,56,56,5,261.890339434,V_nV,2,261.895181275,263.152990648,0,1,0.611555959564,263.785098862,1,1,0.230739879538,5,6.5,32,bw,99.7807366318,2019_may_15_1628,002,256,20,5,xabier,Experiment_EEG_version,20,
Living_Things,../experiment_stimuli/bw_bc_bl/Living_Things/Animals/rhino_3.jpg,Animals,0,rhino,0,57,57,68,265.748716128,V_nV,1,265.753628681,267.041436407,1,1,0.491296990076,267.553278915,2,0,0.320917347795,5,6.5,32,bw,99.7807366318,2019_may_15_1628,002,256,20,5,xabier,Experiment_EEG_version,20,
Nonliving_Things,../experiment_stimuli/bw_bc_bl/Nonliving_Things/Musical_Inst/saxophone_15.jpg,Musical_Inst,0,saxophone,0,58,58,72,269.607126595,nV_V,1,269.612100479,270.889798808,1,1,0.952305192128,271.86264454,1,1,0.26078559598,5,6.5,32,bw,99.7807366318,2019_may_15_1628,002,256,20,5,xabier,Experiment_EEG_version,20,
Living_Things,../experiment_stimuli/bw_bc_bl/Living_Things/Birds/raven_26.jpg,Birds,0,raven,0,59,59,67,273.856349292,nV_V,2,273.862344394,275.159076425,1,2,0.962319071754,276.141964119,2,0,0.300876191119,5,8.0,32,bw,99.7807366318,2019_may_15_1628,002,256,20,5,xabier,Experiment_EEG_version,20,
Living_Things,../experiment_stimuli/bw_bc_bl/Living_Things/Marine_creatures/manatee_25.jpg,Marine_creatures,0,manatee,0,60,60,52,278.175729936,V_nV,1,278.181805841,279.468450039,1,1,0.95231740654,280.441333808,3,0,0.28082743322,5,6.0,32,bw,99.7807366318,2019_may_15_1628,002,256,20,5,xabier,Experiment_EEG_version,20,
Nonliving_Things,../experiment_stimuli/bw_bc_bl/Nonliving_Things/Buildings/palace_5.jpg,Buildings,0,palace,0,61,61,58,282.455039183,nV_V,1,282.460118419,283.72771357,1,1,1.18281787587,284.931098557,2,0,0.290853635175,5,6.0,32,bw,99.7807366318,2019_may_15_1628,002,256,20,5,xabier,Experiment_EEG_version,20,
Nonliving_Things,../experiment_stimuli/bw_bc_bl/Nonliving_Things/Furniture/bookcase_16.jpg,Furniture,0,bookcase,0,62,62,8,286.954816048,V_nV,2,286.959722869,288.217460803,1,2,0.691726450692,288.929742038,1,1,0.240760875284,5,7.5,32,bw,99.7807366318,2019_may_15_1628,002,256,20,5,xabier,Experiment_EEG_version,20,
Living_Things,../experiment_stimuli/bw_bc_bl/Living_Things/Marine_creatures/killer-whale_13.jpg,Marine_creatures,0,killer-whale,0,63,63,43,290.903408047,V_nV,1,290.910911428,292.19611427,1,1,0.681707642856,292.898384856,1,1,0.240742036956,5,7.5,32,bw,99.7807366318,2019_may_15_1628,002,256,20,5,xabier,Experiment_EEG_version,20,
Nonliving_Things,../experiment_stimuli/bw_bc_bl/Nonliving_Things/Kitchen_Uten/cup_10.jpg,Kitchen_Uten,0,cup,0,64,64,22,294.872045684,nV_V,1,294.878102928,296.19480674,1,1,0.992383140954,297.207752492,2,0,0.250613362179,5,6.0,32,bw,99.7807366318,2019_may_15_1628,002,256,20,5,xabier,Experiment_EEG_version,20,
Nonliving_Things,../experiment_stimuli/bw_bc_bl/Nonliving_Things/Kitchen_Uten/teapot_14.jpg,Kitchen_Uten,0,teapot,0,65,65,83,299.191417948,V_nV,2,299.198870108,300.504170741,1,2,0.912046099664,301.446808061,3,0,0.320917144418,5,6.0,32,bw,99.7807366318,2019_may_15_1628,002,256,20,5,xabier,Experiment_EEG_version,20,
Nonliving_Things,../experiment_stimuli/bw_bc_bl/Nonliving_Things/Furniture/bedside-table_20.jpg,Furniture,0,bedside-table,0,66,66,6,303.500782453,V_nV,2,303.505880151,304.783473677,1,2,1.10263340408,305.906669509,3,0,0.220706621185,5,6.0,32,bw,99.7807366318,2019_may_15_1628,002,256,20,5,xabier,Experiment_EEG_version,20,
Nonliving_Things,../experiment_stimuli/bw_bc_bl/Nonliving_Things/Vehicles/train_6.jpg,Vehicles,0,train,0,67,67,87,307.860264868,nV_V,1,307.866258768,309.112882914,1,1,1.20284776192,310.336301667,1,1,0.210684734513,5,7.0,32,bw,99.7807366318,2019_may_15_1628,002,256,20,5,xabier,Experiment_EEG_version,20,
Living_Things,../experiment_stimuli/bw_bc_bl/Living_Things/Birds/goldfinch_7.jpg,Birds,0,goldfinch,0,68,68,33,312.279867408,V_nV,1,312.284757834,313.542518441,0,2,0.671702936641,314.234771497,1,1,0.250764803612,5,6.0,32,bw,99.7807366318,2019_may_15_1628,002,256,20,5,xabier,Experiment_EEG_version,20,
Living_Things,../experiment_stimuli/bw_bc_bl/Living_Things/Birds/owl_17.jpg,Birds,0,owl,0,69,69,57,316.218429118,nV_V,2,316.223349021,317.491096425,0,1,0.621579966275,318.133225075,1,1,0.190640063141,5,6.0,32,bw,99.7807366318,2019_may_15_1628,002,256,20,5,xabier,Experiment_EEG_version,20,
Nonliving_Things,../experiment_stimuli/bw_bc_bl/Nonliving_Things/Kitchen_Uten/frying-pan_4.jpg,Kitchen_Uten,0,frying-pan,0,70,70,31,320.0567695,nV_V,1,320.061615886,321.339470096,1,1,0.551424888661,321.91144642,1,1,0.240741822869,5,6.0,32,bw,99.7807366318,2019_may_15_1628,002,256,20,5,xabier,Experiment_EEG_version,20,
Living_Things,../experiment_stimuli/bw_bc_bl/Living_Things/Animals/lioness_6.jpg,Animals,0,lioness,0,71,71,48,323.885095075,V_nV,1,323.889943664,325.177809392,1,1,0.73182378232,325.930208038,1,1,0.240738616325,5,6.0,32,bw,99.7807366318,2019_may_15_1628,002,256,20,5,xabier,Experiment_EEG_version,20,
Living_Things,../experiment_stimuli/bw_bc_bl/Living_Things/Marine_creatures/narwhal_5.jpg,Marine_creatures,0,narwhal,0,72,72,55,327.903840408,nV_V,2,327.908836528,329.226613422,1,2,1.46340701927,330.710556294,2,0,0.260792111163,5,6.5,32,bw,99.7807366318,2019_may_15_1628,002,256,20,5,xabier,Experiment_EEG_version,20,
Nonliving_Things,../experiment_stimuli/bw_bc_bl/Nonliving_Things/Buildings/mill_11.jpg,Buildings,0,mill,0,73,73,53,332.704264395,V_nV,2,332.712052423,334.017022117,1,2,1.76407693874,335.801671836,2,0,0.320916028111,5,7.0,32,bw,99.7807366318,2019_may_15_1628,002,256,20,5,xabier,Experiment_EEG_version,20,
Living_Things,../experiment_stimuli/bw_bc_bl/Living_Things/Birds/kiwi_23.jpg,Birds,0,kiwi,0,74,74,44,337.855477242,V_nV,1,337.860583869,339.158199123,1,1,0.842054526904,340.020805938,3,0,0.290856022388,5,6.0,32,bw,99.7807366318,2019_may_15_1628,002,256,20,5,xabier,Experiment_EEG_version,20,
Nonliving_Things,../experiment_stimuli/bw_bc_bl/Nonliving_Things/Vehicles/tractor_15.jpg,Vehicles,0,tractor,0,75,75,86,342.044568425,V_nV,2,342.049404251,343.327261115,1,2,0.812014118768,344.159835789,3,0,0.32091985899,5,7.5,32,bw,99.7807366318,2019_may_15_1628,002,256,20,5,xabier,Experiment_EEG_version,20,
Nonliving_Things,../experiment_stimuli/bw_bc_bl/Nonliving_Things/Vehicles/motorbike_12.jpg,Vehicles,0,motorbike,0,76,76,54,346.213633432,nV_V,1,346.218559884,347.47629077,1,1,0.771901550703,348.268736943,2,0,0.260785847669,5,6.0,32,bw,99.7807366318,2019_may_15_1628,002,256,20,5,xabier,Experiment_EEG_version,20,
Living_Things,../experiment_stimuli/bw_bc_bl/Living_Things/Animals/lynx_9.jpg,Animals,0,lynx,0,77,77,50,350.262432116,V_nV,1,350.267337681,351.515057128,0,2,1.92441036436,353.460032179,1,1,0.270810591639,5,6.0,32,bw,99.7807366318,2019_may_15_1628,002,256,20,5,xabier,Experiment_EEG_version,20,
Living_Things,../experiment_stimuli/bw_bc_bl/Living_Things/Animals/hippopotamus_21.jpg,Animals,0,hippopotamus,0,78,78,39,355.463777031,V_nV,1,355.468563579,356.746430774,1,1,0.551427583909,357.318444999,3,0,0.270812858362,5,6.5,32,bw,99.7807366318,2019_may_15_1628,002,256,20,5,xabier,Experiment_EEG_version,20,
Nonliving_Things,../experiment_stimuli/bw_bc_bl/Nonliving_Things/Furniture/wardrobe_17.jpg,Furniture,0,wardrobe,0,79,79,93,359.32212789,nV_V,1,359.326855939,360.594793028,1,1,0.621580526582,361.236912242,3,0,0.21070259891,5,6.0,32,bw,99.7807366318,2019_may_15_1628,002,256,20,5,xabier,Experiment_EEG_version,20,
Nonliving_Things,../experiment_stimuli/bw_bc_bl/Nonliving_Things/Vehicles/plane_10.jpg,Vehicles,0,plane,0,80,80,64,363.180509614,V_nV,2,363.188241743,364.423115513,0,1,1.12267233874,365.566370362,1,1,0.210694471258,5,6.0,32,bw,99.7807366318,2019_may_15_1628,002,256,20,5,xabier,Experiment_EEG_version,20,
Living_Things,../experiment_stimuli/bw_bc_bl/Living_Things/Marine_creatures/dolphin_17.jpg,Marine_creatures,0,dolphin,0,81,81,23,367.509927753,V_nV,1,367.514694181,368.762550693,1,1,0.781963255838,369.565069989,1,1,0.280829079798,5,6.0,32,bw,99.7807366318,2019_may_15_1628,002,256,20,5,xabier,Experiment_EEG_version,20,
Nonliving_Things,../experiment_stimuli/bw_bc_bl/Nonliving_Things/Vehicles/bus_24.jpg,Vehicles,0,bus,0,82,82,9,371.578766838,V_nV,2,371.583700906,372.851448788,1,2,1.46324719093,374.335251097,3,0,0.240741228918,5,6.5,32,bw,99.7807366318,2019_may_15_1628,002,256,20,5,xabier,Experiment_EEG_version,20,
Nonliving_Things,../experiment_stimuli/bw_bc_bl/Nonliving_Things/Kitchen_Uten/coking-pot_19.jpg,Kitchen_Uten,0,coking-pot,0,83,83,18,376.309051833,V_nV,2,376.313758778,377.551665808,1,2,0.761901494465,378.334113527,2,0,0.240764480201,5,6.0,32,bw,99.7807366318,2019_may_15_1628,002,256,20,5,xabier,Experiment_EEG_version,20,
Nonliving_Things,../experiment_stimuli/bw_bc_bl/Nonliving_Things/Kitchen_Uten/small-saucepan_6.jpg,Kitchen_Uten,0,small-saucepan,0,84,84,77,380.307742487,nV_V,1,380.312494017,381.540335098,1,1,0.641626600409,382.20251511,1,1,0.230719752377,5,6.0,32,bw,99.7807366318,2019_may_15_1628,002,256,20,5,xabier,Experiment_EEG_version,20,
Living_Things,../experiment_stimuli/bw_bc_bl/Living_Things/Birds/pigeon_24.jpg,Birds,0,pigeon,0,85,85,63,384.166138079,V_nV,1,384.170943841,385.438802777,1,1,0.932255877764,386.391597447,1,1,0.260786227533,5,6.0,32,bw,99.7807366318,2019_may_15_1628,002,256,20,5,xabier,Experiment_EEG_version,20,
Nonliving_Things,../experiment_stimuli/bw_bc_bl/Nonliving_Things/Furniture/armchair_4.jpg,Furniture,0,armchair,0,86,86,2,388.385327432,nV_V,1,388.390069484,389.667992032,1,1,0.982363931136,390.67093045,2,0,0.230722395005,5,6.0,32,bw,99.7807366318,2019_may_15_1628,002,256,20,5,xabier,Experiment_EEG_version,20,
Living_Things,../experiment_stimuli/bw_bc_bl/Living_Things/Animals/cat_11.jpg,Animals,0,cat,0,87,87,13,392.634536095,nV_V,2,392.639334662,393.897189764,0,1,0.521362672211,394.439107774,2,0,0.180619841791,5,6.5,32,bw,99.7807366318,2019_may_15_1628,002,256,20,5,xabier,Experiment_EEG_version,20,
Living_Things,../experiment_stimuli/bw_bc_bl/Living_Things/Birds/seagull_3.jpg,Birds,0,seagull,0,88,88,74,396.352627727,nV_V,2,396.357439357,397.605244321,0,1,0.5614524103,398.18727179,2,0,0.220700057223,5,6.0,32,bw,99.7807366318,2019_may_15_1628,002,256,20,5,xabier,Experiment_EEG_version,20,
Living_Things,../experiment_stimuli/bw_bc_bl/Living_Things/Insects/ladybird_1.jpg,Insects,0,ladybird,0,89,89,45,400.140856936,V_nV,1,400.14559862,401.393495364,1,1,1.02245130436,402.436490047,1,1,0.220698602614,5,6.0,32,bw,99.7807366318,2019_may_15_1628,002,256,20,5,xabier,Experiment_EEG_version,20,
Nonliving_Things,../experiment_stimuli/bw_bc_bl/Nonliving_Things/Furniture/lectern_26.jpg,Furniture,0,lectern,0,90,90,47,404.390089629,nV_V,1,404.39489856,405.652736625,1,1,0.862109754933,406.535436051,2,0,0.240756890271,5,6.0,32,bw,99.7807366318,2019_may_15_1628,002,256,20,5,xabier,Experiment_EEG_version,20,
Living_Things,../experiment_stimuli/bw_bc_bl/Living_Things/Insects/scorpion_1.jpg,Insects,0,scorpion,0,91,91,73,408.519082913,V_nV,1,408.525612538,409.781713793,0,2,0.681723011076,410.484008648,1,1,0.250772901229,5,6.0,32,bw,99.7807366318,2019_may_15_1628,002,256,20,5,xabier,Experiment_EEG_version,20,
Living_Things,../experiment_stimuli/bw_bc_bl/Living_Things/Birds/duck_3.jpg,Birds,0,duck,0,92,92,26,412.467652348,nV_V,2,412.474109737,413.760375846,1,2,1.19283548463,414.973783735,3,0,0.270803636522,5,6.0,32,bw,99.7807366318,2019_may_15_1628,002,256,20,5,xabier,Experiment_EEG_version,20,
Living_Things,../experiment_stimuli/bw_bc_bl/Living_Things/Animals/armadillo_1.jpg,Animals,0,armadillo,0,93,93,1,416.977473039,V_nV,1,416.98241451,418.240111249,1,1,0.912211390445,419.172857188,1,1,0.260807933984,5,6.0,32,bw,99.7807366318,2019_may_15_1628,002,256,20,5,xabier,Experiment_EEG_version,20,
Living_Things,../experiment_stimuli/bw_bc_bl/Living_Things/Marine_creatures/crab_5.jpg,Marine_creatures,0,crab,0,94,94,21,421.176588131,nV_V,2,421.181403314,422.439238859,0,1,0.962320714258,423.422101675,2,0,0.340961617068,5,6.0,32,bw,99.7807366318,2019_may_15_1628,002,256,20,5,xabier,Experiment_EEG_version,20,
Living_Things,../experiment_stimuli/bw_bc_bl/Living_Things/Birds/rooster_0.jpg,Birds,0,rooster,0,95,95,70,425.495973947,nV_V,2,425.50258539,426.748596023,1,2,0.791948068072,427.561111789,2,0,0.260782239144,5,6.5,32,bw,99.7807366318,2019_may_15_1628,002,256,20,5,xabier,Experiment_EEG_version,20,
