category,probe_path,subcategory,fixation_duration,label,trials.thisRepN,trials.thisTrialN,trials.thisN,trials.thisIndex,image_onset_time,response_window,correctAns,probe_onset,discrim_resptime,response.corr,response.keys,response.rt,visible_resptime,visible.keys,visible.corr,visible.rt,probeFrames,jitter2,n_square,experiment_color,frameRate,date,session,image_size,premask_dur,probeFrames,participant,expName,postmask_dur,
Nonliving_Things,../experiment_stimuli/bw_bc_bl/Nonliving_Things/Buildings/church_19.jpg,Buildings,0,church,0,0,0,17,3.73648464191,V_nV,2,3.77060344641,5.03921742085,1,2,0.691727014724,5.76178201998,2,0,0.160568948486,5,8.0,32,bw,99.7820766317,2019_may_20_1702,019,256,20,5,xabi,Experiment_EEG_version,20,
Living_Things,../experiment_stimuli/bw_bc_bl/Living_Things/Marine_creatures/killer-whale_9.jpg,Marine_creatures,0,killer-whale,0,1,1,43,7.65500441741,V_nV,1,7.66903000243,8.92766908964,1,1,0.541407588171,9.48963166552,1,1,0.170624732971,5,6.0,32,bw,99.7820766317,2019_may_20_1702,019,256,20,5,xabi,Experiment_EEG_version,20,
Nonliving_Things,../experiment_stimuli/bw_bc_bl/Nonliving_Things/Musical_Inst/tuba_12.jpg,Musical_Inst,0,tuba,0,2,2,89,11.393125179,nV_V,1,11.4091962682,12.6758208501,1,1,0.691737176036,13.3881142053,3,0,0.180604898254,5,6.5,32,bw,99.7820766317,2019_may_20_1702,019,256,20,5,xabi,Experiment_EEG_version,20,
Nonliving_Things,../experiment_stimuli/bw_bc_bl/Nonliving_Things/Furniture/table_11.jpg,Furniture,0,table,0,3,3,81,15.3016216169,nV_V,1,15.3201234948,16.5542479031,1,1,0.631603360525,17.2164421938,1,1,0.18060477043,5,6.0,32,bw,99.7820766317,2019_may_20_1702,019,256,20,5,xabi,Experiment_EEG_version,20,
Nonliving_Things,../experiment_stimuli/bw_bc_bl/Nonliving_Things/Buildings/factory_21.jpg,Buildings,0,factory,0,4,4,28,19.1299460151,V_nV,2,19.1486640965,20.3926009506,1,2,0.581489194534,20.9946259568,1,1,0.18061077781,5,6.0,32,bw,99.7820766317,2019_may_20_1702,019,256,20,5,xabi,Experiment_EEG_version,20,
Nonliving_Things,../experiment_stimuli/bw_bc_bl/Nonliving_Things/Kitchen_Uten/pot_19.jpg,Kitchen_Uten,0,pot,0,5,5,66,22.9081614993,V_nV,2,22.9242471411,24.1808319344,1,2,0.46125092404,24.6626383535,2,0,0.170581211103,5,6.0,32,bw,99.7820766317,2019_may_20_1702,019,256,20,5,xabi,Experiment_EEG_version,20,
Nonliving_Things,../experiment_stimuli/bw_bc_bl/Nonliving_Things/Furniture/lamp_10.jpg,Furniture,0,lamp,0,6,6,46,26.5661088148,V_nV,2,26.57660289,27.818730962,1,2,0.47108846379,28.3103644811,2,0,0.180610612733,5,6.5,32,bw,99.7820766317,2019_may_20_1702,019,256,20,5,xabi,Experiment_EEG_version,20,
Living_Things,../experiment_stimuli/bw_bc_bl/Living_Things/Birds/penguin_5.jpg,Birds,0,penguin,0,7,7,61,30.2240581943,nV_V,2,30.2458685776,31.4766805671,1,2,0.601547689294,32.0987939092,2,0,0.200669475482,5,7.0,32,bw,99.7820766317,2019_may_20_1702,019,256,20,5,xabi,Experiment_EEG_version,20,
Living_Things,../experiment_stimuli/bw_bc_bl/Living_Things/Marine_creatures/dolphin_18.jpg,Marine_creatures,0,dolphin,0,8,8,23,34.0323405677,nV_V,2,34.0503645763,35.2749536549,0,1,0.601551121683,35.8970484863,1,1,0.22069644474,5,8.0,32,bw,99.7820766317,2019_may_20_1702,019,256,20,5,xabi,Experiment_EEG_version,20,
Nonliving_Things,../experiment_stimuli/bw_bc_bl/Nonliving_Things/Vehicles/car_25.jpg,Vehicles,0,car,0,9,9,11,37.8506374814,nV_V,1,37.8685671043,39.1233121495,1,1,0.431165028014,39.5750249398,3,0,0.210679967655,5,6.0,32,bw,99.7820766317,2019_may_20_1702,019,256,20,5,xabi,Experiment_EEG_version,20,
Living_Things,../experiment_stimuli/bw_bc_bl/Living_Things/Animals/elephant_20.jpg,Animals,0,elephant,0,10,10,27,41.5186084507,nV_V,2,41.5338291049,42.761213542,0,1,0.441195421852,43.222955508,1,1,0.20064858906,5,6.0,32,bw,99.7820766317,2019_may_20_1702,019,256,20,5,xabi,Experiment_EEG_version,20,
Living_Things,../experiment_stimuli/bw_bc_bl/Living_Things/Birds/ostrich_10.jpg,Birds,0,ostrich,0,11,11,56,45.1565178275,V_nV,1,45.1760657881,46.419172782,0,2,0.601530854939,47.0412453582,1,1,0.200653036125,5,6.0,32,bw,99.7820766317,2019_may_20_1702,019,256,20,5,xabi,Experiment_EEG_version,20,
Living_Things,../experiment_stimuli/bw_bc_bl/Living_Things/Birds/kiwi_3.jpg,Birds,0,kiwi,0,12,12,44,48.9748168881,V_nV,1,48.9940388649,50.2675269725,1,1,0.591499435017,50.8795758572,1,1,0.190619898029,5,6.0,32,bw,99.7820766317,2019_may_20_1702,019,256,20,5,xabi,Experiment_EEG_version,20,
Nonliving_Things,../experiment_stimuli/bw_bc_bl/Nonliving_Things/Furniture/bookcase_21.jpg,Furniture,0,bookcase,0,13,13,8,52.8031375118,V_nV,2,52.8207228765,54.1259230187,1,2,0.441181309638,54.5876555864,3,0,0.200650592567,5,8.0,32,bw,99.7820766317,2019_may_20_1702,019,256,20,5,xabi,Experiment_EEG_version,20,
Nonliving_Things,../experiment_stimuli/bw_bc_bl/Nonliving_Things/Furniture/bedside-table_22.jpg,Furniture,0,bedside-table,0,14,14,6,56.5212171996,nV_V,1,56.536176222,57.8239529033,1,1,0.711770445574,58.5563029975,2,0,0.200651566032,5,8.0,32,bw,99.7820766317,2019_may_20_1702,019,256,20,5,xabi,Experiment_EEG_version,20,
Nonliving_Things,../experiment_stimuli/bw_bc_bl/Nonliving_Things/Kitchen_Uten/cup_26.jpg,Kitchen_Uten,0,cup,0,15,15,22,60.4898552911,V_nV,2,60.5069335351,61.7825579655,1,2,0.521358228987,62.324469637,2,0,0.180607187911,5,6.0,32,bw,99.7820766317,2019_may_20_1702,019,256,20,5,xabi,Experiment_EEG_version,20,
Nonliving_Things,../experiment_stimuli/bw_bc_bl/Nonliving_Things/Vehicles/ship_10.jpg,Vehicles,0,ship,0,16,16,76,64.2379947774,nV_V,1,64.2560845974,65.520683257,1,1,0.621583210654,66.1628245267,1,1,0.180620541098,5,6.0,32,bw,99.7820766317,2019_may_20_1702,019,256,20,5,xabi,Experiment_EEG_version,20,
Living_Things,../experiment_stimuli/bw_bc_bl/Living_Things/Insects/scorpion_18.jpg,Insects,0,scorpion,0,17,17,73,68.0763671333,nV_V,2,68.0947877567,69.3790716005,1,2,0.591510051396,69.9911343501,1,1,0.210682264529,5,6.5,32,bw,99.7820766317,2019_may_20_1702,019,256,20,5,xabi,Experiment_EEG_version,20,
Nonliving_Things,../experiment_stimuli/bw_bc_bl/Nonliving_Things/Furniture/bed_8.jpg,Furniture,0,bed,0,18,18,5,71.934728793,nV_V,1,71.956861837,73.2675244232,1,1,0.832036208245,74.1201205701,2,0,0.180625932058,5,6.5,32,bw,99.7820766317,2019_may_20_1702,019,256,20,5,xabi,Experiment_EEG_version,20,
Nonliving_Things,../experiment_stimuli/bw_bc_bl/Nonliving_Things/Vehicles/plane_2.jpg,Vehicles,0,plane,0,19,19,64,76.0336339212,nV_V,1,76.0582065055,77.3664315176,0,2,0.46123501088,77.8482355723,2,0,0.150542979361,5,7.0,32,bw,99.7820766317,2019_may_20_1702,019,256,20,5,xabi,Experiment_EEG_version,20,
Nonliving_Things,../experiment_stimuli/bw_bc_bl/Nonliving_Things/Tools/axe_20.jpg,Tools,0,axe,0,20,20,3,79.7316796702,nV_V,1,79.7608365684,81.0550302216,1,1,0.511334274895,81.5863357139,2,0,0.180608811905,5,7.5,32,bw,99.7820766317,2019_may_20_1702,019,256,20,5,xabi,Experiment_EEG_version,20,
Living_Things,../experiment_stimuli/bw_bc_bl/Living_Things/Insects/butterfly_17.jpg,Insects,0,butterfly,0,21,21,10,83.4998808015,V_nV,1,83.5244454459,84.8126313093,1,1,0.781921655289,85.6150824672,3,0,0.230716395075,5,6.0,32,bw,99.7820766317,2019_may_20_1702,019,256,20,5,xabi,Experiment_EEG_version,20,
Nonliving_Things,../experiment_stimuli/bw_bc_bl/Nonliving_Things/Vehicles/boat_0.jpg,Vehicles,0,boat,0,22,22,7,87.5787324539,V_nV,2,87.5921940992,88.8514144828,1,2,0.511340116849,89.3832855648,2,0,0.170592207112,5,7.0,32,bw,99.7820766317,2019_may_20_1702,019,256,20,5,xabi,Experiment_EEG_version,20,
Living_Things,../experiment_stimuli/bw_bc_bl/Living_Things/Birds/toucan_1.jpg,Birds,0,toucan,0,23,23,85,91.2867889164,nV_V,2,91.3073008145,92.5494387095,1,2,0.701750115259,93.2717305868,1,1,0.220707824104,5,6.0,32,bw,99.7820766317,2019_may_20_1702,019,256,20,5,xabi,Experiment_EEG_version,20,
Nonliving_Things,../experiment_stimuli/bw_bc_bl/Nonliving_Things/Furniture/chair_4.jpg,Furniture,0,chair,0,24,24,15,95.225353048,nV_V,1,95.2423173839,96.5180650417,1,1,0.781928917975,97.3205666578,3,0,0.200653618667,5,6.0,32,bw,99.7820766317,2019_may_20_1702,019,256,20,5,xabi,Experiment_EEG_version,20,
Nonliving_Things,../experiment_stimuli/bw_bc_bl/Nonliving_Things/Furniture/rocking-chair_4.jpg,Furniture,0,rocking-chair,0,25,25,69,99.2541142182,nV_V,1,99.2742205056,100.51675488,1,1,0.771899542771,101.319272266,2,0,0.210689429892,5,6.0,32,bw,99.7820766317,2019_may_20_1702,019,256,20,5,xabi,Experiment_EEG_version,20,
Living_Things,../experiment_stimuli/bw_bc_bl/Living_Things/Marine_creatures/manatee_11.jpg,Marine_creatures,0,manatee,0,26,26,52,103.262824762,V_nV,1,103.28148068,104.515450661,1,1,0.852076951298,105.398104283,1,1,0.200653363368,5,6.5,32,bw,99.7820766317,2019_may_20_1702,019,256,20,5,xabi,Experiment_EEG_version,20,
Living_Things,../experiment_stimuli/bw_bc_bl/Living_Things/Birds/hummingbird_7.jpg,Birds,0,hummingbird,0,27,27,42,107.331675156,V_nV,1,107.347768824,108.61435859,1,1,0.431164760957,109.066065606,1,1,0.170589440153,5,7.5,32,bw,99.7820766317,2019_may_20_1702,019,256,20,5,xabi,Experiment_EEG_version,20,
Nonliving_Things,../experiment_stimuli/bw_bc_bl/Nonliving_Things/Kitchen_Uten/small-saucepan_10.jpg,Kitchen_Uten,0,small-saucepan,0,28,28,77,110.969581304,V_nV,2,110.989134959,112.282334127,1,2,0.481268532109,112.784144752,3,0,0.190629480407,5,6.5,32,bw,99.7820766317,2019_may_20_1702,019,256,20,5,xabi,Experiment_EEG_version,20,
Living_Things,../experiment_stimuli/bw_bc_bl/Living_Things/Birds/barn-owl_14.jpg,Birds,0,barn-owl,0,29,29,4,114.707702911,V_nV,1,114.726288209,116.000416348,1,1,0.8019681687,116.822936095,2,0,0.18061159784,5,6.0,32,bw,99.7820766317,2019_may_20_1702,019,256,20,5,xabi,Experiment_EEG_version,20,
Nonliving_Things,../experiment_stimuli/bw_bc_bl/Nonliving_Things/Buildings/palace_18.jpg,Buildings,0,palace,0,30,30,58,118.736459093,nV_V,1,118.750581552,120.019151723,1,1,0.611400067341,120.651102086,1,1,0.190636145533,5,6.5,32,bw,99.7820766317,2019_may_20_1702,019,256,20,5,xabi,Experiment_EEG_version,20,
Nonliving_Things,../experiment_stimuli/bw_bc_bl/Nonliving_Things/Musical_Inst/violin_0.jpg,Musical_Inst,0,violin,0,31,31,92,122.574809058,V_nV,2,122.592677411,123.867520676,1,2,0.551423866069,124.439488086,3,0,0.190628724988,5,8.0,32,bw,99.7820766317,2019_may_20_1702,019,256,20,5,xabi,Experiment_EEG_version,20,
Living_Things,../experiment_stimuli/bw_bc_bl/Living_Things/Animals/lioness_1.jpg,Animals,0,lioness,0,32,32,48,126.363042105,V_nV,1,126.376534495,127.635707958,1,1,0.611557764001,128.267803627,1,1,0.190631886362,5,6.0,32,bw,99.7820766317,2019_may_20_1702,019,256,20,5,xabi,Experiment_EEG_version,20,
Living_Things,../experiment_stimuli/bw_bc_bl/Living_Things/Animals/lynx_6.jpg,Animals,0,lynx,0,33,33,50,130.191359894,nV_V,2,130.206545846,131.474055411,1,2,0.621578955208,132.116196768,2,0,0.200657374458,5,6.0,32,bw,99.7820766317,2019_may_20_1702,019,256,20,5,xabi,Experiment_EEG_version,20,
Nonliving_Things,../experiment_stimuli/bw_bc_bl/Nonliving_Things/Musical_Inst/saxophone_23.jpg,Musical_Inst,0,saxophone,0,34,34,72,134.049746035,V_nV,2,134.06431048,135.322417602,1,2,1.58366960124,136.926649303,1,1,0.260812862311,5,6.0,32,bw,99.7820766317,2019_may_20_1702,019,256,20,5,xabi,Experiment_EEG_version,20,
Living_Things,../experiment_stimuli/bw_bc_bl/Living_Things/Animals/armadillo_2.jpg,Animals,0,armadillo,0,35,35,1,138.920335251,nV_V,2,138.93528145,140.223070469,1,2,0.651661054231,140.895284575,3,0,0.230737913516,5,6.5,32,bw,99.7820766317,2019_may_20_1702,019,256,20,5,xabi,Experiment_EEG_version,20,
Living_Things,../experiment_stimuli/bw_bc_bl/Living_Things/Marine_creatures/pomfret_20.jpg,Marine_creatures,0,pomfret,0,36,36,65,142.858898104,nV_V,2,142.879756192,144.141588764,1,2,0.421140119084,144.58327701,1,1,0.200653945911,5,6.5,32,bw,99.7820766317,2019_may_20_1702,019,256,20,5,xabi,Experiment_EEG_version,20,
Nonliving_Things,../experiment_stimuli/bw_bc_bl/Nonliving_Things/Vehicles/motorbike_23.jpg,Vehicles,0,motorbike,0,37,37,54,146.5168506,nV_V,1,146.53363992,147.829605668,1,1,0.671697387705,148.521848817,3,0,0.180610424839,5,6.0,32,bw,99.7820766317,2019_may_20_1702,019,256,20,5,xabi,Experiment_EEG_version,20,
Living_Things,../experiment_stimuli/bw_bc_bl/Living_Things/Animals/giraffe_1.jpg,Animals,0,giraffe,0,38,38,32,150.435388195,nV_V,2,150.462076294,151.738102936,1,2,0.451211609179,152.20986736,2,0,0.170591850067,5,6.0,32,bw,99.7820766317,2019_may_20_1702,019,256,20,5,xabi,Experiment_EEG_version,20,
Nonliving_Things,../experiment_stimuli/bw_bc_bl/Nonliving_Things/Musical_Inst/guitar_19.jpg,Musical_Inst,0,guitar,0,39,39,36,154.113432978,nV_V,1,154.130472381,155.396055703,1,1,0.481290994445,155.897933143,3,0,0.18061185698,5,7.5,32,bw,99.7820766317,2019_may_20_1702,019,256,20,5,xabi,Experiment_EEG_version,20,
Nonliving_Things,../experiment_stimuli/bw_bc_bl/Nonliving_Things/Vehicles/train_23.jpg,Vehicles,0,train,0,40,40,87,157.811404409,nV_V,1,157.829971274,159.07406128,1,1,0.671686729765,159.766287897,1,1,0.190632006619,5,6.5,32,bw,99.7820766317,2019_may_20_1702,019,256,20,5,xabi,Experiment_EEG_version,20,
Nonliving_Things,../experiment_stimuli/bw_bc_bl/Nonliving_Things/Musical_Inst/piano__12.jpg,Musical_Inst,0,piano,0,41,41,62,161.68983733,nV_V,1,161.702896763,162.952479649,1,1,0.5814862923,163.554539523,1,1,0.200502000633,5,6.0,32,bw,99.7820766317,2019_may_20_1702,019,256,20,5,xabi,Experiment_EEG_version,20,
Nonliving_Things,../experiment_stimuli/bw_bc_bl/Nonliving_Things/Kitchen_Uten/teapot_7.jpg,Kitchen_Uten,0,teapot,0,42,42,83,165.488093918,nV_V,1,165.511612435,166.790825351,1,1,1.7440120643,168.55541879,3,0,0.270804978791,5,6.5,32,bw,99.7820766317,2019_may_20_1702,019,256,20,5,xabi,Experiment_EEG_version,20,
Living_Things,../experiment_stimuli/bw_bc_bl/Living_Things/Animals/hippopotamus_16.jpg,Animals,0,hippopotamus,0,43,43,39,170.559150191,V_nV,1,170.583153821,171.831780296,1,1,1.31292030227,173.165266131,2,0,0.681699567824,5,8.0,32,bw,99.7820766317,2019_may_20_1702,019,256,20,5,xabi,Experiment_EEG_version,20,
Living_Things,../experiment_stimuli/bw_bc_bl/Living_Things/Birds/magpie_6.jpg,Birds,0,magpie,0,44,44,51,175.580029495,V_nV,1,175.598018256,176.832661292,0,2,0.461227744352,177.314439144,1,1,0.170588338864,5,7.5,32,bw,99.7820766317,2019_may_20_1702,019,256,20,5,xabi,Experiment_EEG_version,20,
Living_Things,../experiment_stimuli/bw_bc_bl/Living_Things/Animals/cat_9.jpg,Animals,0,cat,0,45,45,13,179.217938692,V_nV,1,179.238564396,180.480584797,1,1,0.721805038629,181.222943274,1,1,0.180613999837,5,6.0,32,bw,99.7820766317,2019_may_20_1702,019,256,20,5,xabi,Experiment_EEG_version,20,
Nonliving_Things,../experiment_stimuli/bw_bc_bl/Nonliving_Things/Tools/hammer_16.jpg,Tools,0,hammer,0,46,46,37,183.13648191,nV_V,1,183.155969827,184.409120335,1,1,0.651641145116,185.081304885,1,1,0.180626785499,5,7.0,32,bw,99.7820766317,2019_may_20_1702,019,256,20,5,xabi,Experiment_EEG_version,20,
Nonliving_Things,../experiment_stimuli/bw_bc_bl/Nonliving_Things/Furniture/Chest-of-drawers_2.jpg,Furniture,0,Chest-of-drawers,0,47,47,0,186.994844277,V_nV,2,187.013219322,188.29757753,1,2,0.48127278022,188.799386475,2,0,0.170589737361,5,6.0,32,bw,99.7820766317,2019_may_20_1702,019,256,20,5,xabi,Experiment_EEG_version,20,
Living_Things,../experiment_stimuli/bw_bc_bl/Living_Things/Insects/dragonfly_2.jpg,Insects,0,dragonfly,0,48,48,24,190.702900258,V_nV,1,190.716184001,191.985600929,0,2,0.501317459508,192.50747041,3,0,2.33529772039,5,6.5,32,bw,99.7820766317,2019_may_20_1702,019,256,20,5,xabi,Experiment_EEG_version,20,
Living_Things,../experiment_stimuli/bw_bc_bl/Living_Things/Animals/cow_18.jpg,Animals,0,cow,0,49,49,20,196.575670873,nV_V,2,196.591644565,197.848341609,1,2,0.631602646201,198.500503081,2,0,0.170594376395,5,6.5,32,bw,99.7820766317,2019_may_20_1702,019,256,20,5,xabi,Experiment_EEG_version,20,
Living_Things,../experiment_stimuli/bw_bc_bl/Living_Things/Marine_creatures/whale_22.jpg,Marine_creatures,0,whale,0,50,50,94,200.403992057,nV_V,2,200.427307426,201.666650816,1,2,0.571310483268,202.258521783,1,1,0.19063471735,5,6.0,32,bw,99.7820766317,2019_may_20_1702,019,256,20,5,xabi,Experiment_EEG_version,20,
Nonliving_Things,../experiment_stimuli/bw_bc_bl/Nonliving_Things/Kitchen_Uten/fondue_3.jpg,Kitchen_Uten,0,fondue,0,51,51,30,204.182221977,V_nV,2,204.196636331,205.464896412,1,2,0.811992220697,206.297429666,3,0,0.220689978334,5,6.5,32,bw,99.7820766317,2019_may_20_1702,019,256,20,5,xabi,Experiment_EEG_version,20,
Living_Things,../experiment_stimuli/bw_bc_bl/Living_Things/Animals/tiger_15.jpg,Animals,0,tiger,0,52,52,84,208.251049025,nV_V,2,208.266217703,209.513697205,0,1,0.811986645334,210.346243823,1,1,0.220547341276,5,6.5,32,bw,99.7820766317,2019_may_20_1702,019,256,20,5,xabi,Experiment_EEG_version,20,
Nonliving_Things,../experiment_stimuli/bw_bc_bl/Nonliving_Things/Musical_Inst/drum_8.jpg,Musical_Inst,0,drum,0,53,53,25,212.299850021,V_nV,2,212.312156901,213.582541651,1,2,0.561287405202,214.164391476,3,0,0.190634567058,5,6.5,32,bw,99.7820766317,2019_may_20_1702,019,256,20,5,xabi,Experiment_EEG_version,20,
Living_Things,../experiment_stimuli/bw_bc_bl/Living_Things/Birds/goldfinch_25.jpg,Birds,0,goldfinch,0,54,54,33,216.088094779,V_nV,1,216.103642985,217.360755075,1,1,0.701752461144,218.083074557,1,1,0.180609308067,5,6.0,32,bw,99.7820766317,2019_may_20_1702,019,256,20,5,xabi,Experiment_EEG_version,20,
Nonliving_Things,../experiment_stimuli/bw_bc_bl/Nonliving_Things/Buildings/cathedral_12.jpg,Buildings,0,cathedral,0,55,55,14,219.996590349,nV_V,1,220.012833045,221.28929485,0,2,0.892168609891,222.202016301,1,1,1.12266061746,5,6.5,32,bw,99.7820766317,2019_may_20_1702,019,256,20,5,xabi,Experiment_EEG_version,20,
Nonliving_Things,../experiment_stimuli/bw_bc_bl/Nonliving_Things/Furniture/lectern_9.jpg,Furniture,0,lectern,0,56,56,47,225.057605142,nV_V,1,225.079410931,226.380366322,1,1,0.681714405888,227.082638008,3,0,0.29085377045,5,6.0,32,bw,99.7820766317,2019_may_20_1702,019,256,20,5,xabi,Experiment_EEG_version,20,
Nonliving_Things,../experiment_stimuli/bw_bc_bl/Nonliving_Things/Kitchen_Uten/coking-pot_6.jpg,Kitchen_Uten,0,coking-pot,0,57,57,18,229.10638277,nV_V,1,229.128640729,230.409121782,1,1,0.621590575436,231.051276063,3,0,0.230715601589,5,6.0,32,bw,99.7820766317,2019_may_20_1702,019,256,20,5,xabi,Experiment_EEG_version,20,
Living_Things,../experiment_stimuli/bw_bc_bl/Living_Things/Animals/horse_1.jpg,Animals,0,horse,0,58,58,40,233.014885858,nV_V,2,233.0300136,234.297572067,1,2,0.982522184378,235.310700185,3,0,0.280828827759,5,7.0,32,bw,99.7820766317,2019_may_20_1702,019,256,20,5,xabi,Experiment_EEG_version,20,
Nonliving_Things,../experiment_stimuli/bw_bc_bl/Nonliving_Things/Furniture/filling-cabinet_0.jpg,Furniture,0,filling-cabinet,0,59,59,29,237.324248916,nV_V,1,237.346323814,238.57687792,1,1,0.561445440399,239.158876446,1,1,0.210672779824,5,6.5,32,bw,99.7820766317,2019_may_20_1702,019,256,20,5,xabi,Experiment_EEG_version,20,
Living_Things,../experiment_stimuli/bw_bc_bl/Living_Things/Marine_creatures/shark_8.jpg,Marine_creatures,0,shark,0,60,60,75,241.102489903,nV_V,2,241.122764632,242.365117633,1,2,0.521365980385,242.907025977,1,1,0.2808277976,5,6.0,32,bw,99.7820766317,2019_may_20_1702,019,256,20,5,xabi,Experiment_EEG_version,20,
Living_Things,../experiment_stimuli/bw_bc_bl/Living_Things/Birds/owl_8.jpg,Birds,0,owl,0,61,61,57,244.920763288,V_nV,1,244.934112533,246.203461166,1,1,0.922237228253,247.14624422,1,1,0.210671919165,5,6.5,32,bw,99.7820766317,2019_may_20_1702,019,256,20,5,xabi,Experiment_EEG_version,20,
Living_Things,../experiment_stimuli/bw_bc_bl/Living_Things/Birds/raven_22.jpg,Birds,0,raven,0,62,62,67,249.089841828,V_nV,1,249.103943209,250.412605474,1,1,0.721810824471,251.154979361,2,0,0.260775479837,5,6.5,32,bw,99.7820766317,2019_may_20_1702,019,256,20,5,xabi,Experiment_EEG_version,20,
Living_Things,../experiment_stimuli/bw_bc_bl/Living_Things/Animals/cheetah_24.jpg,Animals,0,cheetah,0,63,63,16,253.14866653,V_nV,1,253.163358673,254.461409426,1,1,0.551429877174,255.033395042,2,0,0.230746522429,5,8.0,32,bw,99.7820766317,2019_may_20_1702,019,256,20,5,xabi,Experiment_EEG_version,20,
Living_Things,../experiment_stimuli/bw_bc_bl/Living_Things/Birds/hen_4.jpg,Birds,0,hen,0,64,64,38,256.997018236,nV_V,2,257.012567137,258.299756402,1,2,1.05254067038,259.372846594,3,0,0.200674753636,5,6.0,32,bw,99.7820766317,2019_may_20_1702,019,256,20,5,xabi,Experiment_EEG_version,20,
Living_Things,../experiment_stimuli/bw_bc_bl/Living_Things/Birds/pigeon_4.jpg,Birds,0,pigeon,0,65,65,63,261.306388057,V_nV,1,261.324563793,262.58907292,1,1,0.661664110376,263.28131872,2,0,0.19063754438,5,6.0,32,bw,99.7820766317,2019_may_20_1702,019,256,20,5,xabi,Experiment_EEG_version,20,
Living_Things,../experiment_stimuli/bw_bc_bl/Living_Things/Animals/turtle_3.jpg,Animals,0,turtle,0,66,66,90,265.204855307,V_nV,1,265.223292622,266.487554151,1,1,0.591509363265,267.099613089,1,1,0.210673155729,5,6.0,32,bw,99.7820766317,2019_may_20_1702,019,256,20,5,xabi,Experiment_EEG_version,20,
Living_Things,../experiment_stimuli/bw_bc_bl/Living_Things/Birds/sparrow_21.jpg,Birds,0,sparrow,0,67,67,79,269.043204972,nV_V,2,269.061005318,270.325891166,1,2,0.64161676995,270.988070494,2,0,0.180636879173,5,6.5,32,bw,99.7820766317,2019_may_20_1702,019,256,20,5,xabi,Experiment_EEG_version,20,
Living_Things,../experiment_stimuli/bw_bc_bl/Living_Things/Animals/zebra_14.jpg,Animals,0,zebra,0,68,68,95,272.901589571,nV_V,2,272.920904505,274.184286415,1,2,0.591532291728,274.796375093,2,0,0.19047900138,5,6.5,32,bw,99.7820766317,2019_may_20_1702,019,256,20,5,xabi,Experiment_EEG_version,20,
Nonliving_Things,../experiment_stimuli/bw_bc_bl/Nonliving_Things/Buildings/castle_14.jpg,Buildings,0,castle,0,69,69,12,276.719887158,nV_V,1,276.735890113,277.982539364,0,2,0.591520126094,278.594613158,1,1,0.21069589234,5,6.0,32,bw,99.7820766317,2019_may_20_1702,019,256,20,5,xabi,Experiment_EEG_version,20,
Living_Things,../experiment_stimuli/bw_bc_bl/Living_Things/Birds/partridge_3.jpg,Birds,0,partridge,0,70,70,59,280.538183282,nV_V,2,280.554009469,281.810861022,1,2,0.721635390888,282.553069396,1,1,0.190631886362,5,6.0,32,bw,99.7820766317,2019_may_20_1702,019,256,20,5,xabi,Experiment_EEG_version,20,
Nonliving_Things,../experiment_stimuli/bw_bc_bl/Nonliving_Things/Buildings/granary_14.jpg,Buildings,0,granary,0,71,71,35,284.476748741,nV_V,1,284.491901614,285.769467103,1,1,0.521357751451,286.311361045,3,0,0.220697331592,5,8.0,32,bw,99.7820766317,2019_may_20_1702,019,256,20,5,xabi,Experiment_EEG_version,20,
Nonliving_Things,../experiment_stimuli/bw_bc_bl/Nonliving_Things/Furniture/sofa_17.jpg,Furniture,0,sofa,0,72,72,78,288.264986232,V_nV,2,288.283488756,289.527636382,1,2,0.55142162554,290.099628517,2,0,0.160586880636,5,6.0,32,bw,99.7820766317,2019_may_20_1702,019,256,20,5,xabi,Experiment_EEG_version,20,
Nonliving_Things,../experiment_stimuli/bw_bc_bl/Nonliving_Things/Buildings/mill_13.jpg,Buildings,0,mill,0,73,73,53,291.993095054,nV_V,1,292.012248892,293.24572181,0,2,1.26297383325,294.529245729,1,1,0.33094550448,5,6.0,32,bw,99.7820766317,2019_may_20_1702,019,256,20,5,xabi,Experiment_EEG_version,20,
Nonliving_Things,../experiment_stimuli/bw_bc_bl/Nonliving_Things/Vehicles/bus_3.jpg,Vehicles,0,bus,0,74,74,9,296.593092675,nV_V,1,296.614722583,297.855738678,1,1,0.5113305829,298.387624636,3,0,0.230734657962,5,6.0,32,bw,99.7820766317,2019_may_20_1702,019,256,20,5,xabi,Experiment_EEG_version,20,
Living_Things,../experiment_stimuli/bw_bc_bl/Living_Things/Marine_creatures/sperm-whale_5.jpg,Marine_creatures,0,sperm-whale,0,75,75,80,300.3512651,V_nV,1,300.37106476,301.593866654,0,2,0.5915099798,302.205943456,1,1,0.180613605306,5,6.5,32,bw,99.7820766317,2019_may_20_1702,019,256,20,5,xabi,Experiment_EEG_version,20,
Nonliving_Things,../experiment_stimuli/bw_bc_bl/Nonliving_Things/Vehicles/van_24.jpg,Vehicles,0,van,0,76,76,91,304.119454044,nV_V,1,304.143501061,305.402142317,1,1,0.691725743935,306.114428285,1,1,0.210672937799,5,7.0,32,bw,99.7820766317,2019_may_20_1702,019,256,20,5,xabi,Experiment_EEG_version,20,
Living_Things,../experiment_stimuli/bw_bc_bl/Living_Things/Birds/pelican_20.jpg,Birds,0,pelican,0,77,77,60,308.058018905,nV_V,2,308.073542434,309.340705734,1,2,1.07255423337,310.433817346,2,0,0.200649442151,5,6.5,32,bw,99.7820766317,2019_may_20_1702,019,256,20,5,xabi,Experiment_EEG_version,20,
Living_Things,../experiment_stimuli/bw_bc_bl/Living_Things/Birds/goose_4.jpg,Birds,0,goose,0,78,78,34,312.367391436,V_nV,1,312.388248261,313.640051522,1,1,0.641459914972,314.3020748,2,0,0.180633875658,5,6.0,32,bw,99.7820766317,2019_may_20_1702,019,256,20,5,xabi,Experiment_EEG_version,20,
Living_Things,../experiment_stimuli/bw_bc_bl/Living_Things/Birds/rooster_10.jpg,Birds,0,rooster,0,79,79,70,316.215751122,nV_V,2,316.226791212,317.468373303,1,2,0.591516509652,318.080447391,1,1,0.230735383695,5,6.0,32,bw,99.7820766317,2019_may_20_1702,019,256,20,5,xabi,Experiment_EEG_version,20,
Living_Things,../experiment_stimuli/bw_bc_bl/Living_Things/Marine_creatures/lobster_0.jpg,Marine_creatures,0,lobster,0,80,80,49,320.044071276,V_nV,1,320.050290447,321.306725114,1,1,0.771746518905,322.099011087,2,0,0.180615165271,5,6.0,32,bw,99.7820766317,2019_may_20_1702,019,256,20,5,xabi,Experiment_EEG_version,20,
Living_Things,../experiment_stimuli/bw_bc_bl/Living_Things/Birds/seagull_20.jpg,Birds,0,seagull,0,81,81,74,324.012702601,V_nV,1,324.025686268,325.265322038,1,1,0.601552745793,325.887488135,2,0,0.250765408622,5,6.0,32,bw,99.7820766317,2019_may_20_1702,019,256,20,5,xabi,Experiment_EEG_version,20,
Nonliving_Things,../experiment_stimuli/bw_bc_bl/Nonliving_Things/Kitchen_Uten/frying-pan_3.jpg,Kitchen_Uten,0,frying-pan,0,82,82,31,327.871085719,nV_V,1,327.890390048,329.123711667,1,1,0.591511513572,329.735779423,2,0,0.180614048848,5,6.0,32,bw,99.7820766317,2019_may_20_1702,019,256,20,5,xabi,Experiment_EEG_version,20,
Nonliving_Things,../experiment_stimuli/bw_bc_bl/Nonliving_Things/Furniture/wardrobe_11.jpg,Furniture,0,wardrobe,0,83,83,93,331.649295094,nV_V,1,331.663909532,332.891909065,0,2,0.591512810439,333.503961867,1,1,0.190638532978,5,6.0,32,bw,99.7820766317,2019_may_20_1702,019,256,20,5,xabi,Experiment_EEG_version,20,
Living_Things,../experiment_stimuli/bw_bc_bl/Living_Things/Animals/tapir_0.jpg,Animals,0,tapir,0,84,84,82,335.427524992,nV_V,2,335.443687399,336.690172274,1,2,0.681717345607,337.392420415,1,1,0.200659573777,5,6.5,32,bw,99.7820766317,2019_may_20_1702,019,256,20,5,xabi,Experiment_EEG_version,20,
Living_Things,../experiment_stimuli/bw_bc_bl/Living_Things/Marine_creatures/crab_12.jpg,Marine_creatures,0,crab,0,85,85,21,339.325993115,nV_V,2,339.351156473,340.608678042,1,2,0.451225109166,341.080472462,1,1,0.200677847839,5,6.0,32,bw,99.7820766317,2019_may_20_1702,019,256,20,5,xabi,Experiment_EEG_version,20,
Living_Things,../experiment_stimuli/bw_bc_bl/Living_Things/Insects/ladybird_0.jpg,Insects,0,ladybird,0,86,86,45,343.013999936,nV_V,2,343.027876606,344.316741501,0,1,1.46340963966,345.800707793,2,0,0.270806433517,5,6.5,32,bw,99.7820766317,2019_may_20_1702,019,256,20,5,xabi,Experiment_EEG_version,20,
Nonliving_Things,../experiment_stimuli/bw_bc_bl/Nonliving_Things/Musical_Inst/trumpet_8.jpg,Musical_Inst,0,trumpet,0,87,87,88,347.814441044,nV_V,1,347.83130337,349.107154218,1,1,0.501321211224,349.629027718,3,0,0.190635378589,5,8.0,32,bw,99.7820766317,2019_may_20_1702,019,256,20,5,xabi,Experiment_EEG_version,20,
Nonliving_Things,../experiment_stimuli/bw_bc_bl/Nonliving_Things/Buildings/house_4.jpg,Buildings,0,house,0,88,88,41,351.55257503,nV_V,1,351.57077436,352.825235315,1,1,0.842051545973,353.687832386,2,0,0.230711477809,5,6.0,32,bw,99.7820766317,2019_may_20_1702,019,256,20,5,xabi,Experiment_EEG_version,20,
Living_Things,../experiment_stimuli/bw_bc_bl/Living_Things/Birds/duck_10.jpg,Birds,0,duck,0,89,89,26,355.661516477,V_nV,1,355.679424537,356.924159274,1,1,0.631598394597,357.576292668,1,1,0.220545578282,5,6.5,32,bw,99.7820766317,2019_may_20_1702,019,256,20,5,xabi,Experiment_EEG_version,20,
Nonliving_Things,../experiment_stimuli/bw_bc_bl/Nonliving_Things/Vehicles/tractor_17.jpg,Vehicles,0,tractor,0,90,90,86,359.529909655,V_nV,2,359.551600574,360.812601477,1,2,0.571476958459,361.404636464,3,0,0.230720192078,5,6.5,32,bw,99.7820766317,2019_may_20_1702,019,256,20,5,xabi,Experiment_EEG_version,20,
Living_Things,../experiment_stimuli/bw_bc_bl/Living_Things/Animals/rhino_13.jpg,Animals,0,rhino,0,91,91,68,363.368257601,nV_V,2,363.389427971,364.610862723,0,1,0.942295042332,365.573718685,1,1,0.220698508434,5,6.5,32,bw,99.7820766317,2019_may_20_1702,019,256,20,5,xabi,Experiment_EEG_version,20,
Nonliving_Things,../experiment_stimuli/bw_bc_bl/Nonliving_Things/Kitchen_Uten/saucepan_21.jpg,Kitchen_Uten,0,saucepan,0,92,92,71,367.527285557,V_nV,2,367.543033259,368.779917576,1,2,0.761888727779,369.562364061,1,1,0.200653633685,5,6.5,32,bw,99.7820766317,2019_may_20_1702,019,256,20,5,xabi,Experiment_EEG_version,20,
Nonliving_Things,../experiment_stimuli/bw_bc_bl/Nonliving_Things/Furniture/couch_26.jpg,Furniture,0,couch,0,93,93,19,371.49591919,V_nV,2,371.508997318,372.768588459,0,1,2.31525870669,375.104411845,1,1,0.200653009582,5,6.0,32,bw,99.7820766317,2019_may_20_1702,019,256,20,5,xabi,Experiment_EEG_version,20,
Living_Things,../experiment_stimuli/bw_bc_bl/Living_Things/Marine_creatures/narwhal_1.jpg,Marine_creatures,0,narwhal,0,94,94,55,377.037958379,V_nV,1,377.057695383,378.350728105,1,1,0.501306801918,378.872595943,2,0,0.220548875397,5,7.0,32,bw,99.7820766317,2019_may_20_1702,019,256,20,5,xabi,Experiment_EEG_version,20,
Nonliving_Things,../experiment_stimuli/bw_bc_bl/Nonliving_Things/Furniture/armchair_6.jpg,Furniture,0,armchair,0,95,95,2,380.826203927,nV_V,1,380.843594444,382.138960554,1,1,0.531373908743,382.690900327,3,0,0.190635431209,5,6.0,32,bw,99.7820766317,2019_may_20_1702,019,256,20,5,xabi,Experiment_EEG_version,20,
