category,probe_path,subcategory,fixation_duration,label,trials.thisRepN,trials.thisTrialN,trials.thisN,trials.thisIndex,image_onset_time,response_window,correctAns,probe_onset,discrim_resptime,response.corr,response.keys,response.rt,visible_resptime,visible.keys,visible.corr,visible.rt,probeFrames,jitter2,n_square,experiment_color,frameRate,date,session,image_size,premask_dur,probeFrames,participant,expName,postmask_dur,
Nonliving_Things,../experiment_stimuli/bw_bc_bl/Nonliving_Things/Kitchen_Uten/saucepan_24.jpg,Kitchen_Uten,0,saucepan,0,0,0,71,3.71879472223,V_nV,2,3.7415801367,5.00148565683,1,2,0.8019736649,5.83431000379,3,0,0.932246397133,5,6.5,32,bw,99.7730793517,2019_may_14_1515,003,256,20,5,pedro,Experiment_EEG_version,20,
Living_Things,../experiment_stimuli/bw_bc_bl/Living_Things/Marine_creatures/manatee_20.jpg,Marine_creatures,0,manatee,0,1,1,52,8.49918283126,nV_V,2,8.50396708248,9.75180949323,1,2,0.7618831789,10.5342237766,3,0,0.431157659739,5,6.0,32,bw,99.7730793517,2019_may_14_1515,003,256,20,5,pedro,Experiment_EEG_version,20,
Living_Things,../experiment_stimuli/bw_bc_bl/Living_Things/Animals/horse_7.jpg,Animals,0,horse,0,2,2,40,12.6983107159,V_nV,1,12.7036655039,13.9308968228,1,1,0.0503390345257,14.0017763079,1,1,0.330939019797,5,6.0,32,bw,99.7730793517,2019_may_14_1515,003,256,20,5,pedro,Experiment_EEG_version,20,
Nonliving_Things,../experiment_stimuli/bw_bc_bl/Nonliving_Things/Vehicles/plane_0.jpg,Vehicles,0,plane,0,3,3,64,16.0656265435,nV_V,1,16.0705473341,17.3282762725,0,2,1.0625332265,18.4113533967,1,1,0.731810846599,5,6.5,32,bw,99.7730793517,2019_may_14_1515,003,256,20,5,pedro,Experiment_EEG_version,20,
Nonliving_Things,../experiment_stimuli/bw_bc_bl/Nonliving_Things/Vehicles/ship_6.jpg,Vehicles,0,ship,0,4,4,76,20.8760817858,V_nV,2,20.8810103243,22.1487657395,1,2,0.992387685808,23.161751266,1,1,0.340955342515,5,6.0,32,bw,99.7730793517,2019_may_14_1515,003,256,20,5,pedro,Experiment_EEG_version,20,
Living_Things,../experiment_stimuli/bw_bc_bl/Living_Things/Insects/butterfly_9.jpg,Insects,0,butterfly,0,5,5,10,25.2355615283,V_nV,1,25.240936485,26.5383000515,1,1,1.49348101317,28.052371221,3,0,0.541420058056,5,6.0,32,bw,99.7730793517,2019_may_14_1515,003,256,20,5,pedro,Experiment_EEG_version,20,
Nonliving_Things,../experiment_stimuli/bw_bc_bl/Nonliving_Things/Buildings/house_7.jpg,Buildings,0,house,0,6,6,41,30.3266231805,nV_V,1,30.332002671,31.6093174494,1,1,0.611557685188,32.2414081413,1,1,0.260784814076,5,6.5,32,bw,99.7730793517,2019_may_14_1515,003,256,20,5,pedro,Experiment_EEG_version,20,
Living_Things,../experiment_stimuli/bw_bc_bl/Living_Things/Birds/rooster_25.jpg,Birds,0,rooster,0,7,7,70,34.2351204154,V_nV,1,34.2400002664,35.5378584875,0,2,0.631605059723,36.1900148694,1,1,0.190484174236,5,6.0,32,bw,99.7730793517,2019_may_14_1515,003,256,20,5,pedro,Experiment_EEG_version,20,
Living_Things,../experiment_stimuli/bw_bc_bl/Living_Things/Marine_creatures/whale_19.jpg,Marine_creatures,0,whale,0,8,8,94,38.1135515771,nV_V,2,38.1184035263,39.4263057801,1,2,1.3032578617,40.7501083175,3,0,0.250761134492,5,7.5,32,bw,99.7730793517,2019_may_14_1515,003,256,20,5,pedro,Experiment_EEG_version,20,
Living_Things,../experiment_stimuli/bw_bc_bl/Living_Things/Animals/giraffe_3.jpg,Animals,0,giraffe,0,9,9,32,42.7335942307,nV_V,2,42.7385428927,44.0162861989,1,2,2.73619591125,46.7730541088,2,0,0.431159648637,5,6.5,32,bw,99.7730793517,2019_may_14_1515,003,256,20,5,pedro,Experiment_EEG_version,20,
Nonliving_Things,../experiment_stimuli/bw_bc_bl/Nonliving_Things/Musical_Inst/tuba_25.jpg,Musical_Inst,0,tuba,0,10,10,89,48.9370715754,nV_V,1,48.9421748482,50.2097438826,1,1,1.51336589025,51.743665249,2,0,0.611551489797,5,7.5,32,bw,99.7730793517,2019_may_14_1515,003,256,20,5,pedro,Experiment_EEG_version,20,
Living_Things,../experiment_stimuli/bw_bc_bl/Living_Things/Birds/duck_25.jpg,Birds,0,duck,0,11,11,26,54.0883122906,nV_V,2,54.0943500047,55.3509233319,1,2,1.21286569006,56.5843511299,3,0,0.681705992785,5,6.0,32,bw,99.7730793517,2019_may_14_1515,003,256,20,5,pedro,Experiment_EEG_version,20,
Nonliving_Things,../experiment_stimuli/bw_bc_bl/Nonliving_Things/Furniture/wardrobe_10.jpg,Furniture,0,wardrobe,0,12,12,93,58.9989462295,nV_V,1,59.0037157101,60.2315306186,1,1,0.531391799625,60.7834628455,1,1,0.180681671598,5,6.0,32,bw,99.7730793517,2019_may_14_1515,003,256,20,5,pedro,Experiment_EEG_version,20,
Nonliving_Things,../experiment_stimuli/bw_bc_bl/Nonliving_Things/Vehicles/tractor_23.jpg,Vehicles,0,tractor,0,13,13,86,62.6969844259,nV_V,1,62.7020213613,63.939592096,1,1,1.46340736147,65.4235363399,1,1,0.150558042864,5,7.5,32,bw,99.7730793517,2019_may_14_1515,003,256,20,5,pedro,Experiment_EEG_version,20,
Living_Things,../experiment_stimuli/bw_bc_bl/Living_Things/Animals/lynx_26.jpg,Animals,0,lynx,0,14,14,50,67.3070029713,V_nV,1,67.3118881946,68.5696562001,1,1,1.19282552239,69.7830246122,2,0,0.220690038463,5,7.0,32,bw,99.7730793517,2019_may_14_1515,003,256,20,5,pedro,Experiment_EEG_version,20,
Living_Things,../experiment_stimuli/bw_bc_bl/Living_Things/Marine_creatures/narwhal_15.jpg,Marine_creatures,0,narwhal,0,15,15,55,71.7366331674,nV_V,2,71.741485113,72.9892579272,1,2,1.4132957104,74.4230973588,2,0,0.902173669892,5,6.5,32,bw,99.7730793517,2019_may_14_1515,003,256,20,5,pedro,Experiment_EEG_version,20,
Living_Things,../experiment_stimuli/bw_bc_bl/Living_Things/Birds/pigeon_2.jpg,Birds,0,pigeon,0,16,16,63,77.0582276383,nV_V,2,77.0631338803,78.3008023014,0,1,0.381074320816,78.7024422149,1,1,0.170593643503,5,6.0,32,bw,99.7730793517,2019_may_14_1515,003,256,20,5,pedro,Experiment_EEG_version,20,
Nonliving_Things,../experiment_stimuli/bw_bc_bl/Nonliving_Things/Vehicles/car_17.jpg,Vehicles,0,car,0,17,17,11,80.6059264163,nV_V,1,80.6108591843,81.8685718335,1,1,0.862122979946,82.7512316211,2,0,0.170589496731,5,6.0,32,bw,99.7730793517,2019_may_14_1515,003,256,20,5,pedro,Experiment_EEG_version,20,
Living_Things,../experiment_stimuli/bw_bc_bl/Living_Things/Birds/goldfinch_14.jpg,Birds,0,goldfinch,0,18,18,33,84.6547083264,V_nV,1,84.6595458511,85.9073381276,0,2,0.922232262325,86.8501052459,1,1,0.120476402401,5,7.5,32,bw,99.7730793517,2019_may_14_1515,003,256,20,5,pedro,Experiment_EEG_version,20,
Living_Things,../experiment_stimuli/bw_bc_bl/Living_Things/Animals/zebra_18.jpg,Animals,0,zebra,0,19,19,95,88.7035155332,nV_V,2,88.708481981,89.9761880134,1,2,1.05251409934,91.0492466606,2,0,0.210910705209,5,6.0,32,bw,99.7730793517,2019_may_14_1515,003,256,20,5,pedro,Experiment_EEG_version,20,
Living_Things,../experiment_stimuli/bw_bc_bl/Living_Things/Animals/armadillo_7.jpg,Animals,0,armadillo,0,20,20,1,92.9928343479,nV_V,2,92.9984243921,94.2554827199,1,2,1.12250691251,95.3985485184,1,1,0.160566715465,5,7.0,32,bw,99.7730793517,2019_may_14_1515,003,256,20,5,pedro,Experiment_EEG_version,20,
Nonliving_Things,../experiment_stimuli/bw_bc_bl/Nonliving_Things/Musical_Inst/violin_10.jpg,Musical_Inst,0,violin,0,21,21,92,97.292216154,V_nV,2,97.2978855126,98.5648513415,1,2,1.07255839516,99.6579630174,2,0,0.180608157767,5,6.5,32,bw,99.7730793517,2019_may_14_1515,003,256,20,5,pedro,Experiment_EEG_version,20,
Living_Things,../experiment_stimuli/bw_bc_bl/Living_Things/Animals/cat_25.jpg,Animals,0,cat,0,22,22,13,101.571492763,V_nV,1,101.576360596,102.834129789,1,1,1.2229052796,104.077595206,1,1,0.54152319592,5,6.0,32,bw,99.7730793517,2019_may_14_1515,003,256,20,5,pedro,Experiment_EEG_version,20,
Nonliving_Things,../experiment_stimuli/bw_bc_bl/Nonliving_Things/Buildings/factory_18.jpg,Buildings,0,factory,0,23,23,28,106.351881808,nV_V,1,106.356690292,107.644595385,1,1,0.80197536014,108.467130793,2,0,0.160568366002,5,6.5,32,bw,99.7730793517,2019_may_14_1515,003,256,20,5,pedro,Experiment_EEG_version,20,
Nonliving_Things,../experiment_stimuli/bw_bc_bl/Nonliving_Things/Furniture/bedside-table_8.jpg,Furniture,0,bedside-table,0,24,24,6,110.360588364,V_nV,2,110.365506192,111.643280084,1,2,1.89434421598,113.568232891,1,1,0.270817576151,5,6.5,32,bw,99.7730793517,2019_may_14_1515,003,256,20,5,pedro,Experiment_EEG_version,20,
Nonliving_Things,../experiment_stimuli/bw_bc_bl/Nonliving_Things/Vehicles/motorbike_16.jpg,Vehicles,0,motorbike,0,25,25,54,115.571918707,nV_V,1,115.57686161,116.874653294,1,1,0.731813970429,117.627017308,3,0,0.601525787264,5,6.0,32,bw,99.7730793517,2019_may_14_1515,003,256,20,5,pedro,Experiment_EEG_version,20,
Living_Things,../experiment_stimuli/bw_bc_bl/Living_Things/Marine_creatures/pomfret_4.jpg,Marine_creatures,0,pomfret,0,26,26,65,119.961461259,nV_V,2,119.967930855,121.244159577,0,1,0.962338450947,122.237076192,1,1,0.250615937111,5,6.0,32,bw,99.7730793517,2019_may_14_1515,003,256,20,5,pedro,Experiment_EEG_version,20,
Nonliving_Things,../experiment_stimuli/bw_bc_bl/Nonliving_Things/Kitchen_Uten/pot_24.jpg,Kitchen_Uten,0,pot,0,27,27,66,124.220718489,nV_V,1,124.225607938,125.523450524,1,1,0.972358736035,126.516348462,3,0,0.150547141093,5,6.0,32,bw,99.7730793517,2019_may_14_1515,003,256,20,5,pedro,Experiment_EEG_version,20,
Living_Things,../experiment_stimuli/bw_bc_bl/Living_Things/Birds/owl_25.jpg,Birds,0,owl,0,28,28,57,128.399808943,V_nV,1,128.404645971,129.672474968,0,2,2.40546772693,132.098514555,1,1,0.401115428365,5,6.0,32,bw,99.7730793517,2019_may_14_1515,003,256,20,5,pedro,Experiment_EEG_version,20,
Nonliving_Things,../experiment_stimuli/bw_bc_bl/Nonliving_Things/Furniture/chair_17.jpg,Furniture,0,chair,0,29,29,15,134.232482429,V_nV,2,134.237510628,135.535220163,1,2,0.982203252672,136.5379727,1,1,0.150549625861,5,6.5,32,bw,99.7730793517,2019_may_14_1515,003,256,20,5,pedro,Experiment_EEG_version,20,
Living_Things,../experiment_stimuli/bw_bc_bl/Living_Things/Animals/turtle_10.jpg,Animals,0,turtle,0,30,30,90,138.42159136,V_nV,1,138.42728462,139.754387636,1,1,0.681707424927,140.456628328,1,1,0.310903412057,5,6.0,32,bw,99.7730793517,2019_may_14_1515,003,256,20,5,pedro,Experiment_EEG_version,20,
Living_Things,../experiment_stimuli/bw_bc_bl/Living_Things/Animals/cow_9.jpg,Animals,0,cow,0,31,31,20,142.500451121,nV_V,2,142.507025485,143.853301472,1,2,0.89219350426,144.766050817,2,0,0.170589590562,5,6.0,32,bw,99.7730793517,2019_may_14_1515,003,256,20,5,pedro,Experiment_EEG_version,20,
Nonliving_Things,../experiment_stimuli/bw_bc_bl/Nonliving_Things/Furniture/sofa_22.jpg,Furniture,0,sofa,0,32,32,78,146.669518917,V_nV,2,146.675312928,148.012335412,1,2,0.751861829776,148.784750917,3,0,0.200657799025,5,6.5,32,bw,99.7730793517,2019_may_14_1515,003,256,20,5,pedro,Experiment_EEG_version,20,
Nonliving_Things,../experiment_stimuli/bw_bc_bl/Nonliving_Things/Buildings/mill_8.jpg,Buildings,0,mill,0,33,33,53,150.718314436,nV_V,1,150.723358379,152.031073673,1,1,1.04251111834,153.09414473,1,1,0.150541667477,5,7.5,32,bw,99.7730793517,2019_may_14_1515,003,256,20,5,pedro,Experiment_EEG_version,20,
Nonliving_Things,../experiment_stimuli/bw_bc_bl/Nonliving_Things/Kitchen_Uten/frying-pan_12.jpg,Kitchen_Uten,0,frying-pan,0,34,34,31,154.97758497,nV_V,1,154.982411473,156.320397754,1,1,0.661666734435,157.002631905,1,1,0.20066034433,5,6.0,32,bw,99.7730793517,2019_may_14_1515,003,256,20,5,pedro,Experiment_EEG_version,20,
Nonliving_Things,../experiment_stimuli/bw_bc_bl/Nonliving_Things/Musical_Inst/drum_11.jpg,Musical_Inst,0,drum,0,35,35,25,158.936181447,V_nV,2,158.941158823,160.309070969,1,2,0.982364329568,161.311978064,2,0,0.170616902353,5,7.5,32,bw,99.7730793517,2019_may_14_1515,003,256,20,5,pedro,Experiment_EEG_version,20,
Nonliving_Things,../experiment_stimuli/bw_bc_bl/Nonliving_Things/Tools/axe_11.jpg,Tools,0,axe,0,36,36,3,163.215485984,V_nV,2,163.220548464,164.578349819,0,1,0.992403602926,165.591319176,1,1,0.441177572822,5,7.5,32,bw,99.7730793517,2019_may_14_1515,003,256,20,5,pedro,Experiment_EEG_version,20,
Nonliving_Things,../experiment_stimuli/bw_bc_bl/Nonliving_Things/Musical_Inst/saxophone_10.jpg,Musical_Inst,0,saxophone,0,37,37,72,167.76537245,nV_V,1,167.771639545,169.148296746,0,2,0.862118104298,170.030963331,1,1,0.200672983192,5,6.0,32,bw,99.7730793517,2019_may_14_1515,003,256,20,5,pedro,Experiment_EEG_version,20,
Nonliving_Things,../experiment_stimuli/bw_bc_bl/Nonliving_Things/Tools/hammer_14.jpg,Tools,0,hammer,0,38,38,37,171.964498196,V_nV,2,171.969517101,173.377477453,1,2,0.992388535466,174.390413799,2,0,0.48125834472,5,6.0,32,bw,99.7730793517,2019_may_14_1515,003,256,20,5,pedro,Experiment_EEG_version,20,
Living_Things,../experiment_stimuli/bw_bc_bl/Living_Things/Insects/ladybird_6.jpg,Insects,0,ladybird,0,39,39,45,176.604658621,nV_V,2,176.612585718,178.007554582,0,1,1.31308405538,179.341169453,2,0,0.330954023229,5,6.0,32,bw,99.7730793517,2019_may_14_1515,003,256,20,5,pedro,Experiment_EEG_version,20,
Living_Things,../experiment_stimuli/bw_bc_bl/Living_Things/Insects/dragonfly_10.jpg,Insects,0,dragonfly,0,40,40,24,181.405023366,V_nV,1,181.40995187,182.797965939,1,1,1.26297636336,184.081480298,3,0,0.8220169532,5,6.5,32,bw,99.7730793517,2019_may_14_1515,003,256,20,5,pedro,Experiment_EEG_version,20,
Nonliving_Things,../experiment_stimuli/bw_bc_bl/Nonliving_Things/Kitchen_Uten/cup_4.jpg,Kitchen_Uten,0,cup,0,41,41,22,186.636403125,V_nV,2,186.642455861,188.009283813,1,2,0.942277610418,188.972093806,3,0,0.240743571194,5,7.5,32,bw,99.7730793517,2019_may_14_1515,003,256,20,5,pedro,Experiment_EEG_version,20,
Living_Things,../experiment_stimuli/bw_bc_bl/Living_Things/Birds/magpie_22.jpg,Birds,0,magpie,0,42,42,51,190.945767442,V_nV,1,190.951801479,192.29860962,1,1,1.10262527643,193.421781632,1,1,0.250759171729,5,7.5,32,bw,99.7730793517,2019_may_14_1515,003,256,20,5,pedro,Experiment_EEG_version,20,
Living_Things,../experiment_stimuli/bw_bc_bl/Living_Things/Birds/pelican_13.jpg,Birds,0,pelican,0,43,43,60,195.405460253,nV_V,2,195.410393603,196.778345839,1,2,1.43334357406,198.232234175,3,0,0.401091063861,5,6.5,32,bw,99.7730793517,2019_may_14_1515,003,256,20,5,pedro,Experiment_EEG_version,20,
Living_Things,../experiment_stimuli/bw_bc_bl/Living_Things/Animals/cheetah_7.jpg,Animals,0,cheetah,0,44,44,16,200.366239752,V_nV,1,200.371253981,201.709065058,1,1,0.711772836396,202.441368473,1,1,0.160590929212,5,6.5,32,bw,99.7730793517,2019_may_14_1515,003,256,20,5,pedro,Experiment_EEG_version,20,
Nonliving_Things,../experiment_stimuli/bw_bc_bl/Nonliving_Things/Vehicles/van_23.jpg,Vehicles,0,van,0,45,45,91,204.334863941,V_nV,2,204.339749236,205.687745841,1,2,1.16275168204,206.871018748,3,0,0.361005359737,5,6.0,32,bw,99.7730793517,2019_may_14_1515,003,256,20,5,pedro,Experiment_EEG_version,20,
Living_Things,../experiment_stimuli/bw_bc_bl/Living_Things/Animals/lioness_16.jpg,Animals,0,lioness,0,46,46,48,208.964934459,nV_V,2,208.9698344,210.297738499,1,2,1.2429263122,211.561194728,1,1,0.26078415598,5,7.5,32,bw,99.7730793517,2019_may_14_1515,003,256,20,5,pedro,Experiment_EEG_version,20,
Living_Things,../experiment_stimuli/bw_bc_bl/Living_Things/Birds/goose_22.jpg,Birds,0,goose,0,47,47,34,213.554934174,V_nV,1,213.559829153,214.897731665,1,1,0.882141851529,215.800437015,2,0,0.160568809253,5,6.0,32,bw,99.7730793517,2019_may_14_1515,003,256,20,5,pedro,Experiment_EEG_version,20,
Living_Things,../experiment_stimuli/bw_bc_bl/Living_Things/Birds/raven_3.jpg,Birds,0,raven,0,48,48,67,217.693911214,nV_V,2,217.699971044,219.026717055,1,2,0.811989344598,219.859264891,1,1,0.250617831829,5,6.0,32,bw,99.7730793517,2019_may_14_1515,003,256,20,5,pedro,Experiment_EEG_version,20,
Nonliving_Things,../experiment_stimuli/bw_bc_bl/Nonliving_Things/Vehicles/train_11.jpg,Vehicles,0,train,0,49,49,87,221.842926861,V_nV,2,221.847868035,223.185753641,1,2,1.06253684696,224.268850325,1,1,0.461232529837,5,6.0,32,bw,99.7730793517,2019_may_14_1515,003,256,20,5,pedro,Experiment_EEG_version,20,
Living_Things,../experiment_stimuli/bw_bc_bl/Living_Things/Birds/penguin_26.jpg,Birds,0,penguin,0,50,50,61,226.462977248,V_nV,1,226.467860407,227.82583612,1,1,1.23290602711,229.079353239,3,0,0.420982636104,5,6.0,32,bw,99.7730793517,2019_may_14_1515,003,256,20,5,pedro,Experiment_EEG_version,20,
Living_Things,../experiment_stimuli/bw_bc_bl/Living_Things/Marine_creatures/dolphin_23.jpg,Marine_creatures,0,dolphin,0,51,51,23,231.233339932,nV_V,2,231.238139973,232.576163164,1,2,1.32311177644,233.919833541,2,0,0.340961395123,5,6.0,32,bw,99.7730793517,2019_may_14_1515,003,256,20,5,pedro,Experiment_EEG_version,20,
Living_Things,../experiment_stimuli/bw_bc_bl/Living_Things/Birds/partridge_2.jpg,Birds,0,partridge,0,52,52,59,235.993692915,nV_V,2,235.999718716,237.326487771,1,2,1.12266660988,238.469699868,2,0,0.260788261541,5,6.0,32,bw,99.7730793517,2019_may_14_1515,003,256,20,5,pedro,Experiment_EEG_version,20,
Nonliving_Things,../experiment_stimuli/bw_bc_bl/Nonliving_Things/Buildings/granary_17.jpg,Buildings,0,granary,0,53,53,35,240.463410755,nV_V,1,240.468475179,241.78618836,1,1,1.0825720033,242.889301524,2,0,2.29521483579,5,6.0,32,bw,99.7730793517,2019_may_14_1515,003,256,20,5,pedro,Experiment_EEG_version,20,
Living_Things,../experiment_stimuli/bw_bc_bl/Living_Things/Animals/tiger_2.jpg,Animals,0,tiger,0,54,54,84,246.917436673,V_nV,1,246.922275954,248.230195726,1,1,0.761886261578,249.012612209,1,1,0.2607928777,5,6.0,32,bw,99.7730793517,2019_may_14_1515,003,256,20,5,pedro,Experiment_EEG_version,20,
Nonliving_Things,../experiment_stimuli/bw_bc_bl/Nonliving_Things/Musical_Inst/trumpet_16.jpg,Musical_Inst,0,trumpet,0,55,55,88,251.006322404,nV_V,1,251.011254014,252.329103129,1,1,0.91223213484,253.261880247,1,1,0.200678742549,5,6.0,32,bw,99.7730793517,2019_may_14_1515,003,256,20,5,pedro,Experiment_EEG_version,20,
Nonliving_Things,../experiment_stimuli/bw_bc_bl/Nonliving_Things/Musical_Inst/piano__19.jpg,Musical_Inst,0,piano,0,56,56,62,255.195436458,V_nV,2,255.201460459,256.548276711,1,2,1.18282151886,257.751649161,3,0,0.200510349998,5,6.0,32,bw,99.7730793517,2019_may_14_1515,003,256,20,5,pedro,Experiment_EEG_version,20,
Living_Things,../experiment_stimuli/bw_bc_bl/Living_Things/Marine_creatures/crab_7.jpg,Marine_creatures,0,crab,0,57,57,21,259.68519491,V_nV,1,259.692564109,261.007969199,0,2,1.6137299831,262.642259143,1,1,0.270812896022,5,7.5,32,bw,99.7730793517,2019_may_14_1515,003,256,20,5,pedro,Experiment_EEG_version,20,
Nonliving_Things,../experiment_stimuli/bw_bc_bl/Nonliving_Things/Furniture/lectern_1.jpg,Furniture,0,lectern,0,58,58,47,264.645973575,V_nV,2,264.651980808,265.998818922,1,2,0.87212270539,266.891487701,2,0,0.451049619413,5,6.0,32,bw,99.7730793517,2019_may_14_1515,003,256,20,5,pedro,Experiment_EEG_version,20,
Living_Things,../experiment_stimuli/bw_bc_bl/Living_Things/Animals/tapir_15.jpg,Animals,0,tapir,0,59,59,82,269.075600279,V_nV,1,269.080655751,270.418424953,0,2,1.5135212224,271.952521859,1,1,0.371022453299,5,7.0,32,bw,99.7730793517,2019_may_14_1515,003,256,20,5,pedro,Experiment_EEG_version,20,
Living_Things,../experiment_stimuli/bw_bc_bl/Living_Things/Birds/toucan_6.jpg,Birds,0,toucan,0,60,60,85,274.05643131,V_nV,1,274.061382036,275.42931799,1,1,1.11265962146,276.562532704,3,0,1.69390306011,5,6.5,32,bw,99.7730793517,2019_may_14_1515,003,256,20,5,pedro,Experiment_EEG_version,20,
Nonliving_Things,../experiment_stimuli/bw_bc_bl/Nonliving_Things/Furniture/Chest-of-drawers_12.jpg,Furniture,0,Chest-of-drawers,0,61,61,0,279.989325154,V_nV,2,279.994175724,281.332156938,1,2,1.17277691473,282.525475769,1,1,1.25294984929,5,8.0,32,bw,99.7730793517,2019_may_14_1515,003,256,20,5,pedro,Experiment_EEG_version,20,
Nonliving_Things,../experiment_stimuli/bw_bc_bl/Nonliving_Things/Furniture/armchair_8.jpg,Furniture,0,armchair,0,62,62,2,285.511328522,V_nV,2,285.516176877,286.864175888,1,2,1.1427097625,288.027430559,3,0,0.561445534579,5,6.0,32,bw,99.7730793517,2019_may_14_1515,003,256,20,5,pedro,Experiment_EEG_version,20,
Nonliving_Things,../experiment_stimuli/bw_bc_bl/Nonliving_Things/Furniture/lamp_13.jpg,Furniture,0,lamp,0,63,63,46,290.321788166,nV_V,1,290.326806711,291.644578019,0,2,1.88416230917,293.549295616,3,0,2.22505644959,5,7.5,32,bw,99.7730793517,2019_may_14_1515,003,256,20,5,pedro,Experiment_EEG_version,20,
Living_Things,../experiment_stimuli/bw_bc_bl/Living_Things/Marine_creatures/lobster_26.jpg,Marine_creatures,0,lobster,0,64,64,49,297.507409934,nV_V,2,297.51359227,298.810147074,0,1,0.8220114531,299.652709454,1,1,0.541394272586,5,6.0,32,bw,99.7730793517,2019_may_14_1515,003,256,20,5,pedro,Experiment_EEG_version,20,
Living_Things,../experiment_stimuli/bw_bc_bl/Living_Things/Birds/hen_15.jpg,Birds,0,hen,0,65,65,38,301.927048627,V_nV,1,301.931972485,303.239788875,1,1,1.15273598378,304.42309462,1,1,0.381051170814,5,7.0,32,bw,99.7730793517,2019_may_14_1515,003,256,20,5,pedro,Experiment_EEG_version,20,
Nonliving_Things,../experiment_stimuli/bw_bc_bl/Nonliving_Things/Furniture/table_1.jpg,Furniture,0,table,0,66,66,81,306.53704027,V_nV,2,306.541837513,307.889883801,1,2,1.57367375976,309.484096643,3,0,0.601543636643,5,6.5,32,bw,99.7730793517,2019_may_14_1515,003,256,20,5,pedro,Experiment_EEG_version,20,
Nonliving_Things,../experiment_stimuli/bw_bc_bl/Nonliving_Things/Vehicles/bus_18.jpg,Vehicles,0,bus,0,67,67,9,311.818519744,nV_V,1,311.823309935,313.151320972,1,1,1.73399716656,314.905866036,3,0,1.49347298715,5,6.0,32,bw,99.7730793517,2019_may_14_1515,003,256,20,5,pedro,Experiment_EEG_version,20,
Nonliving_Things,../experiment_stimuli/bw_bc_bl/Nonliving_Things/Kitchen_Uten/teapot_17.jpg,Kitchen_Uten,0,teapot,0,68,68,83,318.132241758,nV_V,1,318.137109963,319.434982345,1,1,0.912216830417,320.367730833,2,0,0.691750138183,5,6.0,32,bw,99.7730793517,2019_may_14_1515,003,256,20,5,pedro,Experiment_EEG_version,20,
Living_Things,../experiment_stimuli/bw_bc_bl/Living_Things/Marine_creatures/sperm-whale_13.jpg,Marine_creatures,0,sperm-whale,0,69,69,80,322.792373427,V_nV,1,322.797126168,324.075066234,0,2,1.46343225555,325.559066049,1,1,0.781921944581,5,7.5,32,bw,99.7730793517,2019_may_14_1515,003,256,20,5,pedro,Experiment_EEG_version,20,
Living_Things,../experiment_stimuli/bw_bc_bl/Living_Things/Birds/kiwi_8.jpg,Birds,0,kiwi,0,70,70,44,328.073858443,V_nV,1,328.078700761,329.376605308,1,1,0.751886660408,330.149029182,2,0,0.371034111246,5,7.0,32,bw,99.7730793517,2019_may_14_1515,003,256,20,5,pedro,Experiment_EEG_version,20,
Nonliving_Things,../experiment_stimuli/bw_bc_bl/Nonliving_Things/Buildings/cathedral_4.jpg,Buildings,0,cathedral,0,71,71,14,332.252939521,V_nV,2,332.257728287,333.555677706,1,2,2.03449405485,335.610741936,1,1,0.731816210959,5,6.0,32,bw,99.7730793517,2019_may_14_1515,003,256,20,5,pedro,Experiment_EEG_version,20,
Nonliving_Things,../experiment_stimuli/bw_bc_bl/Nonliving_Things/Furniture/couch_14.jpg,Furniture,0,couch,0,72,72,19,338.075612402,nV_V,1,338.080444295,339.398374428,1,1,0.872136547288,340.291069658,2,0,0.401094052708,5,6.5,32,bw,99.7730793517,2019_may_14_1515,003,256,20,5,pedro,Experiment_EEG_version,20,
Nonliving_Things,../experiment_stimuli/bw_bc_bl/Nonliving_Things/Buildings/palace_11.jpg,Buildings,0,palace,0,73,73,58,342.425049608,nV_V,1,342.429950082,343.737811416,1,1,0.912214492098,344.670595673,1,1,0.240746157593,5,6.0,32,bw,99.7730793517,2019_may_14_1515,003,256,20,5,pedro,Experiment_EEG_version,20,
Living_Things,../experiment_stimuli/bw_bc_bl/Living_Things/Birds/barn-owl_10.jpg,Birds,0,barn-owl,0,74,74,4,346.644238269,nV_V,2,346.651774894,347.977027046,1,2,1.12268890277,349.120269188,2,0,0.651640930679,5,6.5,32,bw,99.7730793517,2019_may_14_1515,003,256,20,5,pedro,Experiment_EEG_version,20,
Nonliving_Things,../experiment_stimuli/bw_bc_bl/Nonliving_Things/Vehicles/boat_21.jpg,Vehicles,0,boat,0,75,75,7,351.504786805,V_nV,2,351.509477294,352.837588935,1,2,1.65382748761,354.511993455,3,0,0.651638208888,5,7.5,32,bw,99.7730793517,2019_may_14_1515,003,256,20,5,pedro,Experiment_EEG_version,20,
Living_Things,../experiment_stimuli/bw_bc_bl/Living_Things/Birds/seagull_2.jpg,Birds,0,seagull,0,76,76,74,356.896510219,nV_V,2,356.904197285,358.199256817,1,2,1.68391287629,359.903717335,1,1,0.521377976693,5,6.0,32,bw,99.7730793517,2019_may_14_1515,003,256,20,5,pedro,Experiment_EEG_version,20,
Living_Things,../experiment_stimuli/bw_bc_bl/Living_Things/Animals/elephant_18.jpg,Animals,0,elephant,0,77,77,27,362.157962423,V_nV,1,362.162736381,363.480732013,1,1,0.661826905096,364.163104624,1,1,0.270797208068,5,6.0,32,bw,99.7730793517,2019_may_14_1515,003,256,20,5,pedro,Experiment_EEG_version,20,
Nonliving_Things,../experiment_stimuli/bw_bc_bl/Nonliving_Things/Buildings/church_4.jpg,Buildings,0,church,0,78,78,17,366.166670497,nV_V,1,366.171545153,367.519506961,0,2,1.08257653739,368.622647621,3,0,0.882163971197,5,6.5,32,bw,99.7730793517,2019_may_14_1515,003,256,20,5,pedro,Experiment_EEG_version,20,
Living_Things,../experiment_stimuli/bw_bc_bl/Living_Things/Birds/hummingbird_2.jpg,Birds,0,hummingbird,0,79,79,42,371.237689177,nV_V,2,371.243966817,372.560464338,1,2,1.27299387049,373.854001557,2,0,0.481266573712,5,7.0,32,bw,99.7730793517,2019_may_14_1515,003,256,20,5,pedro,Experiment_EEG_version,20,
Nonliving_Things,../experiment_stimuli/bw_bc_bl/Nonliving_Things/Kitchen_Uten/fondue_15.jpg,Kitchen_Uten,0,fondue,0,80,80,30,376.068204185,nV_V,1,376.072990849,377.380946009,1,1,1.06254229799,378.464050643,3,0,1.43336217885,5,6.0,32,bw,99.7730793517,2019_may_14_1515,003,256,20,5,pedro,Experiment_EEG_version,20,
Living_Things,../experiment_stimuli/bw_bc_bl/Living_Things/Marine_creatures/killer-whale_21.jpg,Marine_creatures,0,killer-whale,0,81,81,43,381.63027605,V_nV,1,381.635131078,382.922991225,1,1,1.10262564482,384.046181308,1,1,0.381043775938,5,6.0,32,bw,99.7730793517,2019_may_14_1515,003,256,20,5,pedro,Experiment_EEG_version,20,
Nonliving_Things,../experiment_stimuli/bw_bc_bl/Nonliving_Things/Furniture/rocking-chair_25.jpg,Furniture,0,rocking-chair,0,82,82,69,386.160126559,V_nV,2,386.165034887,387.462863853,1,2,1.04249300977,388.525897599,3,0,1.20283433393,5,6.0,32,bw,99.7730793517,2019_may_14_1515,003,256,20,5,pedro,Experiment_EEG_version,20,
Living_Things,../experiment_stimuli/bw_bc_bl/Living_Things/Birds/ostrich_18.jpg,Birds,0,ostrich,0,83,83,56,391.461644859,nV_V,2,391.46649844,392.74434026,0,1,1.59371373558,394.35861296,1,1,0.190653408819,5,7.5,32,bw,99.7730793517,2019_may_14_1515,003,256,20,5,pedro,Experiment_EEG_version,20,
Living_Things,../experiment_stimuli/bw_bc_bl/Living_Things/Insects/scorpion_6.jpg,Insects,0,scorpion,0,84,84,73,396.282132785,V_nV,1,396.2884363,397.574849354,0,2,1.82419350994,399.419593758,1,1,0.431161336368,5,6.0,32,bw,99.7730793517,2019_may_14_1515,003,256,20,5,pedro,Experiment_EEG_version,20,
Living_Things,../experiment_stimuli/bw_bc_bl/Living_Things/Marine_creatures/shark_10.jpg,Marine_creatures,0,shark,0,85,85,75,401.583651961,V_nV,1,401.588483666,402.89640996,1,1,0.561454455368,403.478412858,2,0,0.290853578888,5,6.0,32,bw,99.7730793517,2019_may_14_1515,003,256,20,5,pedro,Experiment_EEG_version,20,
Nonliving_Things,../experiment_stimuli/bw_bc_bl/Nonliving_Things/Furniture/filling-cabinet_14.jpg,Furniture,0,filling-cabinet,0,86,86,29,405.502201085,nV_V,1,405.507033339,406.794894049,1,1,1.433366457,408.24881949,3,0,0.661658794736,5,6.5,32,bw,99.7730793517,2019_may_14_1515,003,256,20,5,pedro,Experiment_EEG_version,20,
Living_Things,../experiment_stimuli/bw_bc_bl/Living_Things/Animals/rhino_12.jpg,Animals,0,rhino,0,87,87,68,410.643375508,V_nV,1,410.648164613,411.916021985,1,1,0.932258009561,412.868826291,2,0,0.200671599712,5,6.5,32,bw,99.7730793517,2019_may_14_1515,003,256,20,5,pedro,Experiment_EEG_version,20,
Nonliving_Things,../experiment_stimuli/bw_bc_bl/Nonliving_Things/Furniture/bed_24.jpg,Furniture,0,bed,0,88,88,5,414.812412129,nV_V,1,414.817126824,416.065039291,0,2,1.84422986209,417.929832904,2,0,0.471100696712,5,6.5,32,bw,99.7730793517,2019_may_14_1515,003,256,20,5,pedro,Experiment_EEG_version,20,
Nonliving_Things,../experiment_stimuli/bw_bc_bl/Nonliving_Things/Furniture/bookcase_8.jpg,Furniture,0,bookcase,0,89,89,8,420.133976566,V_nV,2,420.138826218,421.386609017,1,2,1.85426544765,423.261429739,1,1,0.240745277551,5,6.5,32,bw,99.7730793517,2019_may_14_1515,003,256,20,5,pedro,Experiment_EEG_version,20,
Nonliving_Things,../experiment_stimuli/bw_bc_bl/Nonliving_Things/Kitchen_Uten/small-saucepan_7.jpg,Kitchen_Uten,0,small-saucepan,0,90,90,77,425.245086108,V_nV,2,425.251534185,426.507743536,1,2,0.711774528085,427.240048059,1,1,0.160564151593,5,6.0,32,bw,99.7730793517,2019_may_14_1515,003,256,20,5,pedro,Experiment_EEG_version,20,
Living_Things,../experiment_stimuli/bw_bc_bl/Living_Things/Birds/sparrow_11.jpg,Birds,0,sparrow,0,91,91,79,429.133547799,nV_V,2,429.138385628,430.416236835,1,2,0.461237796466,430.898021781,2,0,0.721630804066,5,6.0,32,bw,99.7730793517,2019_may_14_1515,003,256,20,5,pedro,Experiment_EEG_version,20,
Nonliving_Things,../experiment_stimuli/bw_bc_bl/Nonliving_Things/Kitchen_Uten/coking-pot_12.jpg,Kitchen_Uten,0,coking-pot,0,92,92,18,433.352713318,nV_V,1,433.357511099,434.625389309,1,1,0.962158389797,435.608092265,1,1,0.190665401169,5,6.5,32,bw,99.7730793517,2019_may_14_1515,003,256,20,5,pedro,Experiment_EEG_version,20,
Nonliving_Things,../experiment_stimuli/bw_bc_bl/Nonliving_Things/Buildings/castle_18.jpg,Buildings,0,castle,0,93,93,12,437.531805038,nV_V,1,437.536561421,438.834539005,1,1,0.721634120157,439.576731203,2,0,1.13270337589,5,6.0,32,bw,99.7730793517,2019_may_14_1515,003,256,20,5,pedro,Experiment_EEG_version,20,
Nonliving_Things,../experiment_stimuli/bw_bc_bl/Nonliving_Things/Musical_Inst/guitar_10.jpg,Musical_Inst,0,guitar,0,94,94,36,442.442473605,V_nV,2,442.44737117,443.735193482,1,2,2.75621922599,446.511993045,2,0,1.60370793467,5,6.0,32,bw,99.7730793517,2019_may_14_1515,003,256,20,5,pedro,Experiment_EEG_version,20,
Living_Things,../experiment_stimuli/bw_bc_bl/Living_Things/Animals/hippopotamus_18.jpg,Animals,0,hippopotamus,0,95,95,39,449.848573128,nV_V,2,449.853374462,451.131267931,1,2,1.65382689756,452.805655914,1,1,0.882142757357,5,6.0,32,bw,99.7730793517,2019_may_14_1515,003,256,20,5,pedro,Experiment_EEG_version,20,
