category,probe_path,subcategory,fixation_duration,label,trials.thisRepN,trials.thisTrialN,trials.thisN,trials.thisIndex,image_onset_time,response_window,correctAns,probe_onset,discrim_resptime,response.corr,response.keys,response.rt,visible_resptime,visible.keys,visible.corr,visible.rt,probeFrames,jitter2,n_square,experiment_color,frameRate,date,session,image_size,premask_dur,probeFrames,participant,expName,postmask_dur,
Nonliving_Things,../experiment_stimuli/bw_bc_bl/Nonliving_Things/Buildings/granary_1.jpg,Buildings,0,granary,0,0,0,35,3.71755169495,nV_V,1,3.73790238128,5.00024308427,1,1,0.741857792891,5.77293990919,2,0,0.601527847815,5,6.5,32,bw,99.7816723446,2019_may_15_0945,010,256,20,5,pedro,Experiment_EEG_version,20,
Living_Things,../experiment_stimuli/bw_bc_bl/Living_Things/Marine_creatures/manatee_6.jpg,Marine_creatures,0,manatee,0,1,1,52,8.10709338286,V_nV,1,8.11191053945,9.36975175829,1,1,0.882144317671,10.2724173832,2,0,0.681728736789,5,7.5,32,bw,99.7816723446,2019_may_15_0945,010,256,20,5,pedro,Experiment_EEG_version,20,
Living_Things,../experiment_stimuli/bw_bc_bl/Living_Things/Birds/sparrow_5.jpg,Birds,0,sparrow,0,2,2,79,12.6870449525,V_nV,1,12.6919900249,13.9396733588,0,2,0.952333906433,14.9125594256,1,1,0.541394960717,5,6.0,32,bw,99.7816723446,2019_may_15_0945,010,256,20,5,pedro,Experiment_EEG_version,20,
Nonliving_Things,../experiment_stimuli/bw_bc_bl/Nonliving_Things/Furniture/bed_2.jpg,Furniture,0,bed,0,3,3,5,17.1868252757,V_nV,2,17.1918210126,18.4695183341,1,2,0.761885787884,19.2519402264,2,0,0.340987812204,5,6.0,32,bw,99.7816723446,2019_may_15_0945,010,256,20,5,pedro,Experiment_EEG_version,20,
Nonliving_Things,../experiment_stimuli/bw_bc_bl/Nonliving_Things/Furniture/bookcase_26.jpg,Furniture,0,bookcase,0,4,4,8,21.3258216871,nV_V,1,21.3315142673,22.5985058889,1,1,0.681702751841,23.3007637939,1,1,0.230742740561,5,7.0,32,bw,99.7816723446,2019_may_15_0945,010,256,20,5,pedro,Experiment_EEG_version,20,
Living_Things,../experiment_stimuli/bw_bc_bl/Living_Things/Birds/goose_7.jpg,Birds,0,goose,0,5,5,34,25.2643846154,V_nV,1,25.2692224297,26.5470779183,1,1,0.671692820382,27.239323072,2,0,0.340984281967,5,6.0,32,bw,99.7816723446,2019_may_15_0945,010,256,20,5,pedro,Experiment_EEG_version,20,
Living_Things,../experiment_stimuli/bw_bc_bl/Living_Things/Birds/partridge_14.jpg,Birds,0,partridge,0,6,6,59,29.3131821908,nV_V,2,29.3182338742,30.5858648999,1,2,0.852076187963,31.458497647,2,0,0.411112503207,5,6.0,32,bw,99.7816723446,2019_may_15_0945,010,256,20,5,pedro,Experiment_EEG_version,20,
Nonliving_Things,../experiment_stimuli/bw_bc_bl/Nonliving_Things/Vehicles/car_4.jpg,Vehicles,0,car,0,7,7,11,33.6025350424,nV_V,1,33.6074568896,34.865157445,1,1,0.741863183503,35.627561447,3,0,0.962339236808,5,6.5,32,bw,99.7816723446,2019_may_15_0945,010,256,20,5,pedro,Experiment_EEG_version,20,
Nonliving_Things,../experiment_stimuli/bw_bc_bl/Nonliving_Things/Furniture/sofa_5.jpg,Furniture,0,sofa,0,8,8,78,38.3227670882,nV_V,1,38.3281081961,39.5553623754,0,2,0.661664982617,40.2375755975,1,1,0.340961252281,5,7.0,32,bw,99.7816723446,2019_may_15_0945,010,256,20,5,pedro,Experiment_EEG_version,20,
Nonliving_Things,../experiment_stimuli/bw_bc_bl/Nonliving_Things/Furniture/lectern_16.jpg,Furniture,0,lectern,0,9,9,47,42.3114349458,nV_V,1,42.3163312215,43.5640705174,1,1,1.1828214773,44.7674596476,1,1,0.431163058209,5,6.5,32,bw,99.7816723446,2019_may_15_0945,010,256,20,5,pedro,Experiment_EEG_version,20,
Living_Things,../experiment_stimuli/bw_bc_bl/Living_Things/Animals/lynx_8.jpg,Animals,0,lynx,0,10,10,50,46.931481073,nV_V,2,46.9363633378,48.204150884,1,2,0.571484781452,48.7961953148,1,1,0.561437774973,5,6.0,32,bw,99.7816723446,2019_may_15_0945,010,256,20,5,pedro,Experiment_EEG_version,20,
Living_Things,../experiment_stimuli/bw_bc_bl/Living_Things/Birds/pelican_12.jpg,Birds,0,pelican,0,11,11,60,51.0905226971,V_nV,1,51.0954190631,52.3932528446,1,1,0.711801760772,53.1256202056,3,0,0.260826501588,5,6.0,32,bw,99.7816723446,2019_may_15_0945,010,256,20,5,pedro,Experiment_EEG_version,20,
Nonliving_Things,../experiment_stimuli/bw_bc_bl/Nonliving_Things/Vehicles/train_14.jpg,Vehicles,0,train,0,12,12,87,55.1192878297,nV_V,1,55.1241593318,56.4019890836,1,1,0.721793350938,57.1443045166,3,0,0.3710288406,5,6.0,32,bw,99.7816723446,2019_may_15_0945,010,256,20,5,pedro,Experiment_EEG_version,20,
Living_Things,../experiment_stimuli/bw_bc_bl/Living_Things/Animals/rhino_7.jpg,Animals,0,rhino,0,13,13,68,59.2482539599,V_nV,1,59.2537768847,60.5109109143,0,2,1.39325284353,61.9247377904,1,1,0.210699377058,5,6.5,32,bw,99.7816723446,2019_may_15_0945,010,256,20,5,pedro,Experiment_EEG_version,20,
Nonliving_Things,../experiment_stimuli/bw_bc_bl/Nonliving_Things/Kitchen_Uten/small-saucepan_8.jpg,Kitchen_Uten,0,small-saucepan,0,14,14,77,63.8682967111,V_nV,2,63.8731227888,65.1610137238,1,2,1.35318656772,66.5347716323,1,1,0.240775220911,5,6.0,32,bw,99.7816723446,2019_may_15_0945,010,256,20,5,pedro,Experiment_EEG_version,20,
Nonliving_Things,../experiment_stimuli/bw_bc_bl/Nonliving_Things/Buildings/house_10.jpg,Buildings,0,house,0,15,15,41,68.5083802505,V_nV,2,68.5132309333,69.8211407882,1,2,0.551425907295,70.3932771207,3,0,0.160567647836,5,6.5,32,bw,99.7816723446,2019_may_15_0945,010,256,20,5,pedro,Experiment_EEG_version,20,
Living_Things,../experiment_stimuli/bw_bc_bl/Living_Things/Animals/horse_21.jpg,Animals,0,horse,0,16,16,40,72.2866015281,V_nV,1,72.2914571016,73.569303808,1,1,0.631602728972,74.2215238471,3,0,0.200658964401,5,6.0,32,bw,99.7816723446,2019_may_15_0945,010,256,20,5,pedro,Experiment_EEG_version,20,
Nonliving_Things,../experiment_stimuli/bw_bc_bl/Nonliving_Things/Furniture/rocking-chair_21.jpg,Furniture,0,rocking-chair,0,17,17,69,76.1550101452,V_nV,2,76.1600529567,77.4076366343,1,2,0.791946740821,78.2201302688,1,1,0.200655705237,5,6.5,32,bw,99.7816723446,2019_may_15_0945,010,256,20,5,pedro,Experiment_EEG_version,20,
Nonliving_Things,../experiment_stimuli/bw_bc_bl/Nonliving_Things/Furniture/couch_9.jpg,Furniture,0,couch,0,18,18,19,80.1536934082,V_nV,2,80.1598453767,81.4263697906,1,2,0.912220085971,82.3591326426,1,1,0.200665246462,5,6.5,32,bw,99.7816723446,2019_may_15_0945,010,256,20,5,pedro,Experiment_EEG_version,20,
Nonliving_Things,../experiment_stimuli/bw_bc_bl/Nonliving_Things/Buildings/mill_4.jpg,Buildings,0,mill,0,19,19,53,84.2927004207,V_nV,2,84.2976555381,85.5753887914,1,2,1.01242950046,86.6083674788,1,1,0.170592098206,5,8.0,32,bw,99.7816723446,2019_may_15_0945,010,256,20,5,pedro,Experiment_EEG_version,20,
Living_Things,../experiment_stimuli/bw_bc_bl/Living_Things/Birds/raven_5.jpg,Birds,0,raven,0,20,20,67,88.5118711913,nV_V,2,88.5174384051,89.8045849146,1,2,1.44335331395,91.2684999602,3,0,0.150545291486,5,6.0,32,bw,99.7816723446,2019_may_15_0945,010,256,20,5,pedro,Experiment_EEG_version,20,
Living_Things,../experiment_stimuli/bw_bc_bl/Living_Things/Animals/hippopotamus_17.jpg,Animals,0,hippopotamus,0,21,21,39,93.1519683846,nV_V,2,93.157559132,94.4146200874,1,2,1.58366731193,96.0188085828,3,0,0.491288738442,5,6.0,32,bw,99.7816723446,2019_may_15_0945,010,256,20,5,pedro,Experiment_EEG_version,20,
Nonliving_Things,../experiment_stimuli/bw_bc_bl/Nonliving_Things/Tools/axe_25.jpg,Tools,0,axe,0,22,22,3,98.2430569161,V_nV,2,98.2480398301,99.4856292073,1,2,0.631607661198,100.137780232,1,1,0.140517904889,5,7.0,32,bw,99.7816723446,2019_may_15_0945,010,256,20,5,pedro,Experiment_EEG_version,20,
Nonliving_Things,../experiment_stimuli/bw_bc_bl/Nonliving_Things/Vehicles/boat_20.jpg,Vehicles,0,boat,0,23,23,7,102.011221398,V_nV,2,102.017554014,103.283888352,1,2,1.44338647887,104.747829957,2,0,0.340965124371,5,6.5,32,bw,99.7816723446,2019_may_15_0945,010,256,20,5,pedro,Experiment_EEG_version,20,
Nonliving_Things,../experiment_stimuli/bw_bc_bl/Nonliving_Things/Musical_Inst/trumpet_2.jpg,Musical_Inst,0,trumpet,0,24,24,88,106.821699907,nV_V,1,106.82666434,108.084335395,1,1,0.71177597926,108.816676644,2,0,0.161275088787,5,6.5,32,bw,99.7816723446,2019_may_15_0945,010,256,20,5,pedro,Experiment_EEG_version,20,
Nonliving_Things,../experiment_stimuli/bw_bc_bl/Nonliving_Things/Furniture/armchair_14.jpg,Furniture,0,armchair,0,25,25,2,110.710151854,nV_V,1,110.714986243,111.962760027,1,1,1.05251239258,113.035828396,2,0,0.180639134778,5,6.0,32,bw,99.7816723446,2019_may_15_0945,010,256,20,5,pedro,Experiment_EEG_version,20,
Living_Things,../experiment_stimuli/bw_bc_bl/Living_Things/Insects/dragonfly_4.jpg,Insects,0,dragonfly,0,26,26,24,114.949338495,nV_V,2,114.954299624,116.191944707,1,2,1.37320482626,117.595764113,1,1,0.561449500558,5,6.5,32,bw,99.7816723446,2019_may_15_0945,010,256,20,5,pedro,Experiment_EEG_version,20,
Living_Things,../experiment_stimuli/bw_bc_bl/Living_Things/Marine_creatures/narwhal_25.jpg,Marine_creatures,0,narwhal,0,27,27,55,119.890078755,nV_V,2,119.89598352,121.142717346,1,2,0.992407633225,122.155656455,1,1,0.220542803872,5,7.0,32,bw,99.7816723446,2019_may_15_0945,010,256,20,5,pedro,Experiment_EEG_version,20,
Living_Things,../experiment_stimuli/bw_bc_bl/Living_Things/Insects/scorpion_4.jpg,Insects,0,scorpion,0,28,28,73,124.109259522,V_nV,1,124.114156681,125.38191998,1,1,0.801966055995,126.204451782,2,0,0.28083249327,5,7.0,32,bw,99.7816723446,2019_may_15_0945,010,256,20,5,pedro,Experiment_EEG_version,20,
Nonliving_Things,../experiment_stimuli/bw_bc_bl/Nonliving_Things/Buildings/factory_13.jpg,Buildings,0,factory,0,29,29,28,128.218185623,nV_V,1,128.223065335,129.480834288,1,1,0.862096040859,130.363488298,1,1,0.180637875572,5,6.0,32,bw,99.7816723446,2019_may_15_0945,010,256,20,5,pedro,Experiment_EEG_version,20,
Living_Things,../experiment_stimuli/bw_bc_bl/Living_Things/Animals/cheetah_19.jpg,Animals,0,cheetah,0,30,30,16,132.277013059,nV_V,2,132.282076309,133.569738263,1,2,0.85207917291,134.442378953,2,0,0.411115236115,5,6.5,32,bw,99.7816723446,2019_may_15_0945,010,256,20,5,pedro,Experiment_EEG_version,20,
Living_Things,../experiment_stimuli/bw_bc_bl/Living_Things/Birds/hen_6.jpg,Birds,0,hen,0,31,31,38,136.58637456,nV_V,2,136.59212747,137.869067727,0,1,1.20287020918,139.092496496,1,1,0.230723349785,5,7.5,32,bw,99.7816723446,2019_may_15_0945,010,256,20,5,pedro,Experiment_EEG_version,20,
Living_Things,../experiment_stimuli/bw_bc_bl/Living_Things/Animals/lioness_21.jpg,Animals,0,lioness,0,32,32,48,141.056105772,V_nV,1,141.061138076,142.368863652,1,1,2.29521647847,144.684609742,2,0,0.501308294188,5,6.0,32,bw,99.7816723446,2019_may_15_0945,010,256,20,5,pedro,Experiment_EEG_version,20,
Nonliving_Things,../experiment_stimuli/bw_bc_bl/Nonliving_Things/Furniture/wardrobe_20.jpg,Furniture,0,wardrobe,0,33,33,93,146.918843399,nV_V,1,146.92374313,148.221594903,1,1,0.832041516434,149.074179152,3,0,0.19063134864,5,7.0,32,bw,99.7816723446,2019_may_15_0945,010,256,20,5,pedro,Experiment_EEG_version,20,
Living_Things,../experiment_stimuli/bw_bc_bl/Living_Things/Animals/cat_0.jpg,Animals,0,cat,0,34,34,13,150.997700371,nV_V,2,151.003533893,152.280398914,0,1,0.741867330216,153.042840698,1,1,0.170600688551,5,6.5,32,bw,99.7816723446,2019_may_15_0945,010,256,20,5,pedro,Experiment_EEG_version,20,
Living_Things,../experiment_stimuli/bw_bc_bl/Living_Things/Marine_creatures/shark_12.jpg,Marine_creatures,0,shark,0,35,35,75,154.946297697,nV_V,2,154.951298967,156.239003657,1,2,0.93225122767,157.191816921,3,0,0.401091500302,5,6.0,32,bw,99.7816723446,2019_may_15_0945,010,256,20,5,pedro,Experiment_EEG_version,20,
Living_Things,../experiment_stimuli/bw_bc_bl/Living_Things/Animals/turtle_22.jpg,Animals,0,turtle,0,36,36,90,159.325812615,nV_V,2,159.330699255,160.588460855,0,1,0.701748743304,161.310777059,1,1,0.260793569381,5,6.5,32,bw,99.7816723446,2019_may_15_0945,010,256,20,5,pedro,Experiment_EEG_version,20,
Nonliving_Things,../experiment_stimuli/bw_bc_bl/Nonliving_Things/Musical_Inst/violin_2.jpg,Musical_Inst,0,violin,0,37,37,92,163.304457804,V_nV,2,163.309351177,164.597179741,1,2,1.00247912062,165.620205902,3,0,0.421157118748,5,6.5,32,bw,99.7816723446,2019_may_15_0945,010,256,20,5,pedro,Experiment_EEG_version,20,
Living_Things,../experiment_stimuli/bw_bc_bl/Living_Things/Birds/owl_3.jpg,Birds,0,owl,0,38,38,57,167.774174016,nV_V,2,167.779938603,169.036827196,0,1,0.601527783729,169.658932253,1,1,0.21070253884,5,6.5,32,bw,99.7816723446,2019_may_15_0945,010,256,20,5,pedro,Experiment_EEG_version,20,
Living_Things,../experiment_stimuli/bw_bc_bl/Living_Things/Marine_creatures/sperm-whale_6.jpg,Marine_creatures,0,sperm-whale,0,39,39,80,171.602495723,V_nV,1,171.608331297,172.885192153,1,1,0.872119667823,173.777858512,3,0,0.19064625859,5,6.5,32,bw,99.7816723446,2019_may_15_0945,010,256,20,5,pedro,Experiment_EEG_version,20,
Living_Things,../experiment_stimuli/bw_bc_bl/Living_Things/Birds/barn-owl_7.jpg,Birds,0,barn-owl,0,40,40,4,175.701411937,nV_V,2,175.706254782,176.964058016,1,2,0.982359968708,177.966971017,1,1,0.25076342735,5,6.0,32,bw,99.7816723446,2019_may_15_0945,010,256,20,5,pedro,Experiment_EEG_version,20,
Nonliving_Things,../experiment_stimuli/bw_bc_bl/Nonliving_Things/Vehicles/plane_25.jpg,Vehicles,0,plane,0,41,41,64,179.950650954,V_nV,2,179.955499294,181.22332469,0,1,0.721817053447,181.965709896,1,1,0.200674761552,5,7.0,32,bw,99.7816723446,2019_may_15_0945,010,256,20,5,pedro,Experiment_EEG_version,20,
Nonliving_Things,../experiment_stimuli/bw_bc_bl/Nonliving_Things/Buildings/cathedral_21.jpg,Buildings,0,cathedral,0,42,42,14,183.899240723,V_nV,2,183.90423363,185.201970905,1,2,1.01246383833,186.234984847,2,0,0.340962319926,5,6.0,32,bw,99.7816723446,2019_may_15_0945,010,256,20,5,pedro,Experiment_EEG_version,20,
Living_Things,../experiment_stimuli/bw_bc_bl/Living_Things/Animals/tiger_22.jpg,Animals,0,tiger,0,43,43,84,188.308823252,nV_V,2,188.313761016,189.60153452,1,2,0.862089334172,190.484878166,1,1,0.290856740321,5,6.0,32,bw,99.7816723446,2019_may_15_0945,010,256,20,5,pedro,Experiment_EEG_version,20,
Living_Things,../experiment_stimuli/bw_bc_bl/Living_Things/Marine_creatures/crab_19.jpg,Marine_creatures,0,crab,0,44,44,21,192.507944832,V_nV,1,192.512918468,193.810679743,1,1,0.641463982582,194.47269507,3,0,0.260788242565,5,6.5,32,bw,99.7816723446,2019_may_15_0945,010,256,20,5,pedro,Experiment_EEG_version,20,
Nonliving_Things,../experiment_stimuli/bw_bc_bl/Nonliving_Things/Vehicles/bus_14.jpg,Vehicles,0,bus,0,45,45,9,196.466558135,nV_V,1,196.472579429,197.749248464,1,1,0.932276069419,198.702080736,3,0,0.280868319503,5,7.0,32,bw,99.7816723446,2019_may_15_0945,010,256,20,5,pedro,Experiment_EEG_version,20,
Living_Things,../experiment_stimuli/bw_bc_bl/Living_Things/Birds/kiwi_18.jpg,Birds,0,kiwi,0,46,46,44,200.715789953,V_nV,1,200.720734687,201.978443178,1,1,0.942114511097,202.941089012,2,0,0.160584824043,5,6.0,32,bw,99.7816723446,2019_may_15_0945,010,256,20,5,pedro,Experiment_EEG_version,20,
Living_Things,../experiment_stimuli/bw_bc_bl/Living_Things/Marine_creatures/lobster_10.jpg,Marine_creatures,0,lobster,0,47,47,49,204.834755546,V_nV,1,204.839748068,206.08737423,0,2,0.621576707112,206.729504632,1,1,0.120476187964,5,6.0,32,bw,99.7816723446,2019_may_15_0945,010,256,20,5,pedro,Experiment_EEG_version,20,
Living_Things,../experiment_stimuli/bw_bc_bl/Living_Things/Birds/seagull_1.jpg,Birds,0,seagull,0,48,48,74,208.582891731,V_nV,1,208.587764019,209.855573177,0,2,0.962337627425,210.838457236,1,1,0.17059038789,5,6.0,32,bw,99.7816723446,2019_may_15_0945,010,256,20,5,pedro,Experiment_EEG_version,20,
Nonliving_Things,../experiment_stimuli/bw_bc_bl/Nonliving_Things/Kitchen_Uten/pot_5.jpg,Kitchen_Uten,0,pot,0,49,49,66,212.741937329,V_nV,2,212.747853914,214.044671082,1,2,0.601555384812,214.666787153,3,0,0.220718132216,5,6.5,32,bw,99.7816723446,2019_may_15_0945,010,256,20,5,pedro,Experiment_EEG_version,20,
Nonliving_Things,../experiment_stimuli/bw_bc_bl/Nonliving_Things/Kitchen_Uten/frying-pan_21.jpg,Kitchen_Uten,0,frying-pan,0,50,50,31,216.620361089,nV_V,1,216.625471516,217.903061297,1,1,0.561449361267,218.485099792,3,0,0.210702572833,5,6.5,32,bw,99.7816723446,2019_may_15_0945,010,256,20,5,pedro,Experiment_EEG_version,20,
Living_Things,../experiment_stimuli/bw_bc_bl/Living_Things/Marine_creatures/whale_7.jpg,Marine_creatures,0,whale,0,51,51,94,220.428642954,V_nV,1,220.433897078,221.681273078,0,2,1.1226924588,222.824522923,1,1,0.340961135924,5,6.0,32,bw,99.7816723446,2019_may_15_0945,010,256,20,5,pedro,Experiment_EEG_version,20,
Nonliving_Things,../experiment_stimuli/bw_bc_bl/Nonliving_Things/Kitchen_Uten/coking-pot_17.jpg,Kitchen_Uten,0,coking-pot,0,52,52,18,224.898368918,nV_V,1,224.903137933,226.181051909,1,1,0.731815718696,226.933419788,3,0,0.230722304725,5,6.0,32,bw,99.7816723446,2019_may_15_0945,010,256,20,5,pedro,Experiment_EEG_version,20,
Nonliving_Things,../experiment_stimuli/bw_bc_bl/Nonliving_Things/Buildings/castle_6.jpg,Buildings,0,castle,0,53,53,12,228.897068662,V_nV,2,228.902009201,230.159705959,1,2,0.751869228145,230.93218352,1,1,0.230744251807,5,6.5,32,bw,99.7816723446,2019_may_15_0945,010,256,20,5,pedro,Experiment_EEG_version,20,
Nonliving_Things,../experiment_stimuli/bw_bc_bl/Nonliving_Things/Kitchen_Uten/cup_25.jpg,Kitchen_Uten,0,cup,0,54,54,22,232.895769816,nV_V,1,232.902912548,234.178439999,1,1,0.862105814798,235.061129087,2,0,0.180612902099,5,6.0,32,bw,99.7816723446,2019_may_15_0945,010,256,20,5,pedro,Experiment_EEG_version,20,
Nonliving_Things,../experiment_stimuli/bw_bc_bl/Nonliving_Things/Furniture/filling-cabinet_1.jpg,Furniture,0,filling-cabinet,0,55,55,29,236.974640727,nV_V,1,236.979509086,238.247286599,1,1,0.390910800081,238.658755999,1,1,0.320961591322,5,6.5,32,bw,99.7816723446,2019_may_15_0945,010,256,20,5,pedro,Experiment_EEG_version,20,
Living_Things,../experiment_stimuli/bw_bc_bl/Living_Things/Animals/tapir_4.jpg,Animals,0,tapir,0,56,56,82,240.712747057,nV_V,2,240.717680046,242.015480907,1,2,1.15273925796,243.188783254,2,0,0.521365672525,5,6.0,32,bw,99.7816723446,2019_may_15_0945,010,256,20,5,pedro,Experiment_EEG_version,20,
Nonliving_Things,../experiment_stimuli/bw_bc_bl/Nonliving_Things/Furniture/table_14.jpg,Furniture,0,table,0,57,57,81,245.443028676,V_nV,2,245.44797985,246.735740302,1,2,0.721820730134,247.478117226,2,0,0.701768705447,5,8.0,32,bw,99.7816723446,2019_may_15_0945,010,256,20,5,pedro,Experiment_EEG_version,20,
Nonliving_Things,../experiment_stimuli/bw_bc_bl/Nonliving_Things/Musical_Inst/tuba_10.jpg,Musical_Inst,0,tuba,0,58,58,89,249.912742592,nV_V,1,249.917737746,251.195434902,1,1,0.641639949696,251.857632012,3,0,0.320919054153,5,6.5,32,bw,99.7816723446,2019_may_15_0945,010,256,20,5,pedro,Experiment_EEG_version,20,
Nonliving_Things,../experiment_stimuli/bw_bc_bl/Nonliving_Things/Buildings/palace_14.jpg,Buildings,0,palace,0,59,59,58,253.911439821,nV_V,1,253.916377528,255.164060633,0,2,0.84205418505,256.026687715,1,1,0.230726767273,5,7.5,32,bw,99.7816723446,2019_may_15_0945,010,256,20,5,pedro,Experiment_EEG_version,20,
Living_Things,../experiment_stimuli/bw_bc_bl/Living_Things/Marine_creatures/pomfret_16.jpg,Marine_creatures,0,pomfret,0,60,60,65,257.990304672,V_nV,1,257.995169648,259.272995347,1,1,1.14270340523,260.436276837,2,0,0.541425704607,5,6.0,32,bw,99.7816723446,2019_may_15_0945,010,256,20,5,pedro,Experiment_EEG_version,20,
Living_Things,../experiment_stimuli/bw_bc_bl/Living_Things/Birds/hummingbird_20.jpg,Birds,0,hummingbird,0,61,61,42,262.710564413,nV_V,2,262.716880454,263.983266129,1,2,1.12267287291,265.126471595,1,1,0.441204384493,5,7.0,32,bw,99.7816723446,2019_may_15_0945,010,256,20,5,pedro,Experiment_EEG_version,20,
Nonliving_Things,../experiment_stimuli/bw_bc_bl/Nonliving_Things/Musical_Inst/drum_9.jpg,Musical_Inst,0,drum,0,62,62,25,267.300545531,nV_V,1,267.306691187,268.583247337,1,1,0.701772705361,269.305578955,3,0,0.441180677677,5,6.5,32,bw,99.7816723446,2019_may_15_0945,010,256,20,5,pedro,Experiment_EEG_version,20,
Living_Things,../experiment_stimuli/bw_bc_bl/Living_Things/Insects/ladybird_15.jpg,Insects,0,ladybird,0,63,63,45,271.479627003,V_nV,1,271.485487672,272.732265895,1,1,0.661670411064,273.414479413,1,1,0.260896267137,5,8.0,32,bw,99.7816723446,2019_may_15_0945,010,256,20,5,pedro,Experiment_EEG_version,20,
Living_Things,../experiment_stimuli/bw_bc_bl/Living_Things/Animals/giraffe_22.jpg,Animals,0,giraffe,0,64,64,32,275.408180278,V_nV,1,275.41312844,276.670828868,1,1,0.761906562024,277.453299451,2,0,0.230720218446,5,6.0,32,bw,99.7816723446,2019_may_15_0945,010,256,20,5,pedro,Experiment_EEG_version,20,
Nonliving_Things,../experiment_stimuli/bw_bc_bl/Nonliving_Things/Buildings/church_3.jpg,Buildings,0,church,0,65,65,17,279.416888277,nV_V,1,279.421777233,280.669523518,1,1,1.08242772351,281.782522048,1,1,0.290854593914,5,8.0,32,bw,99.7816723446,2019_may_15_0945,010,256,20,5,pedro,Experiment_EEG_version,20,
Living_Things,../experiment_stimuli/bw_bc_bl/Living_Things/Birds/magpie_7.jpg,Birds,0,magpie,0,66,66,51,283.806423739,nV_V,2,283.812706476,285.079097456,1,2,0.721816598438,285.821473971,1,1,0.200676953071,5,6.0,32,bw,99.7816723446,2019_may_15_0945,010,256,20,5,pedro,Experiment_EEG_version,20,
Nonliving_Things,../experiment_stimuli/bw_bc_bl/Nonliving_Things/Kitchen_Uten/fondue_2.jpg,Kitchen_Uten,0,fondue,0,67,67,30,287.755016114,V_nV,2,287.759830553,289.037712045,1,2,0.9021854889,289.960449349,1,1,0.280831459269,5,6.0,32,bw,99.7816723446,2019_may_15_0945,010,256,20,5,pedro,Experiment_EEG_version,20,
Living_Things,../experiment_stimuli/bw_bc_bl/Living_Things/Birds/toucan_19.jpg,Birds,0,toucan,0,68,68,85,291.974185054,nV_V,2,291.979105085,293.286943874,1,2,0.811995446216,294.119512815,2,0,0.310901807039,5,6.0,32,bw,99.7816723446,2019_may_15_0945,010,256,20,5,pedro,Experiment_EEG_version,20,
Living_Things,../experiment_stimuli/bw_bc_bl/Living_Things/Animals/armadillo_17.jpg,Animals,0,armadillo,0,69,69,1,296.16329024,nV_V,2,296.168372028,297.466031666,1,2,0.9122431383,298.39882384,3,0,0.371023088461,5,6.5,32,bw,99.7816723446,2019_may_15_0945,010,256,20,5,pedro,Experiment_EEG_version,20,
Living_Things,../experiment_stimuli/bw_bc_bl/Living_Things/Birds/goldfinch_21.jpg,Birds,0,goldfinch,0,70,70,33,300.502726063,nV_V,2,300.507679026,301.775395291,1,2,0.651665084646,302.447613574,1,1,0.250780450006,5,7.0,32,bw,99.7816723446,2019_may_15_0945,010,256,20,5,pedro,Experiment_EEG_version,20,
Living_Things,../experiment_stimuli/bw_bc_bl/Living_Things/Animals/zebra_11.jpg,Animals,0,zebra,0,71,71,95,304.43126462,V_nV,1,304.436207741,305.723987553,1,1,2.11484038894,307.85939229,2,0,0.371041174862,5,6.5,32,bw,99.7816723446,2019_may_15_0945,010,256,20,5,pedro,Experiment_EEG_version,20,
Nonliving_Things,../experiment_stimuli/bw_bc_bl/Nonliving_Things/Musical_Inst/guitar_2.jpg,Musical_Inst,0,guitar,0,72,72,36,309.963289543,V_nV,2,309.968236476,311.245987876,1,2,1.0124313311,312.278972879,3,0,0.491291471291,5,7.0,32,bw,99.7816723446,2019_may_15_0945,010,256,20,5,pedro,Experiment_EEG_version,20,
Nonliving_Things,../experiment_stimuli/bw_bc_bl/Nonliving_Things/Vehicles/motorbike_10.jpg,Vehicles,0,motorbike,0,73,73,54,314.503171382,V_nV,2,314.508197104,315.765809115,1,2,0.932271264959,316.718636796,3,0,0.541398806323,5,6.0,32,bw,99.7816723446,2019_may_15_0945,010,256,20,5,pedro,Experiment_EEG_version,20,
Living_Things,../experiment_stimuli/bw_bc_bl/Living_Things/Birds/rooster_12.jpg,Birds,0,rooster,0,74,74,70,318.992931916,nV_V,2,319.002094131,320.225503584,0,1,0.972366615606,321.218420443,1,1,0.190643844719,5,6.0,32,bw,99.7816723446,2019_may_15_0945,010,256,20,5,pedro,Experiment_EEG_version,20,
Nonliving_Things,../experiment_stimuli/bw_bc_bl/Nonliving_Things/Vehicles/ship_25.jpg,Vehicles,0,ship,0,75,75,76,323.141947974,V_nV,2,323.148038958,324.394577782,1,2,0.721814139746,325.136957902,1,1,0.350989078579,5,6.0,32,bw,99.7816723446,2019_may_15_0945,010,256,20,5,pedro,Experiment_EEG_version,20,
Living_Things,../experiment_stimuli/bw_bc_bl/Living_Things/Birds/duck_13.jpg,Birds,0,duck,0,76,76,26,327.220818795,V_nV,1,327.225757224,328.483460223,1,1,0.761725259945,329.265738336,2,0,0.300878146023,5,6.0,32,bw,99.7816723446,2019_may_15_0945,010,256,20,5,pedro,Experiment_EEG_version,20,
Nonliving_Things,../experiment_stimuli/bw_bc_bl/Nonliving_Things/Vehicles/van_16.jpg,Vehicles,0,van,0,77,77,91,331.299675252,nV_V,1,331.304460432,332.552300572,1,1,0.832061583467,333.404937203,1,1,0.230719620537,5,6.0,32,bw,99.7816723446,2019_may_15_0945,010,256,20,5,pedro,Experiment_EEG_version,20,
Living_Things,../experiment_stimuli/bw_bc_bl/Living_Things/Marine_creatures/dolphin_24.jpg,Marine_creatures,0,dolphin,0,78,78,23,335.36852901,nV_V,2,335.374757172,336.641191986,1,2,0.721820715058,337.383567068,1,1,0.220697331592,5,6.0,32,bw,99.7816723446,2019_may_15_0945,010,256,20,5,pedro,Experiment_EEG_version,20,
Nonliving_Things,../experiment_stimuli/bw_bc_bl/Nonliving_Things/Kitchen_Uten/teapot_11.jpg,Kitchen_Uten,0,teapot,0,79,79,83,339.337144241,nV_V,1,339.341978649,340.639885629,1,1,0.932259558409,341.592705652,3,0,0.71177038888,5,6.5,32,bw,99.7816723446,2019_may_15_0945,010,256,20,5,pedro,Experiment_EEG_version,20,
Living_Things,../experiment_stimuli/bw_bc_bl/Living_Things/Animals/cow_16.jpg,Animals,0,cow,0,80,80,20,344.037363821,V_nV,1,344.042273905,345.300017486,0,2,1.00240145612,346.323003467,2,0,0.280831985583,5,6.0,32,bw,99.7816723446,2019_may_15_0945,010,256,20,5,pedro,Experiment_EEG_version,20,
Nonliving_Things,../experiment_stimuli/bw_bc_bl/Nonliving_Things/Furniture/lamp_14.jpg,Furniture,0,lamp,0,81,81,46,348.336714346,nV_V,1,348.34151189,349.589345602,0,2,1.5135543723,351.123461845,1,1,0.57148136833,5,6.0,32,bw,99.7816723446,2019_may_15_0945,010,256,20,5,pedro,Experiment_EEG_version,20,
Living_Things,../experiment_stimuli/bw_bc_bl/Living_Things/Animals/elephant_3.jpg,Animals,0,elephant,0,82,82,27,353.427782517,V_nV,1,353.432611433,354.710474722,1,1,0.641620378883,355.372658998,1,1,0.150568926358,5,6.5,32,bw,99.7816723446,2019_may_15_0945,010,256,20,5,pedro,Experiment_EEG_version,20,
Living_Things,../experiment_stimuli/bw_bc_bl/Living_Things/Birds/ostrich_22.jpg,Birds,0,ostrich,0,83,83,56,357.256104257,V_nV,1,357.260910974,358.55884207,1,1,0.651650682383,359.231055755,1,1,0.130501969135,5,7.0,32,bw,99.7816723446,2019_may_15_0945,010,256,20,5,pedro,Experiment_EEG_version,20,
Living_Things,../experiment_stimuli/bw_bc_bl/Living_Things/Birds/penguin_20.jpg,Birds,0,penguin,0,84,84,61,361.094455226,V_nV,1,361.099347757,362.397188351,1,1,0.75187419838,363.169605394,3,0,0.320918783487,5,6.0,32,bw,99.7816723446,2019_may_15_0945,010,256,20,5,pedro,Experiment_EEG_version,20,
Living_Things,../experiment_stimuli/bw_bc_bl/Living_Things/Marine_creatures/killer-whale_18.jpg,Marine_creatures,0,killer-whale,0,85,85,43,365.22343263,nV_V,2,365.228266437,366.496093396,1,2,0.982360878494,367.509038964,1,1,0.200654265238,5,6.0,32,bw,99.7816723446,2019_may_15_0945,010,256,20,5,pedro,Experiment_EEG_version,20,
Nonliving_Things,../experiment_stimuli/bw_bc_bl/Nonliving_Things/Kitchen_Uten/saucepan_6.jpg,Kitchen_Uten,0,saucepan,0,86,86,71,369.44259566,V_nV,2,369.447319454,370.745336184,1,2,0.761887547269,371.527780921,3,0,0.260789919237,5,6.0,32,bw,99.7816723446,2019_may_15_0945,010,256,20,5,pedro,Experiment_EEG_version,20,
Nonliving_Things,../experiment_stimuli/bw_bc_bl/Nonliving_Things/Furniture/chair_23.jpg,Furniture,0,chair,0,87,87,15,373.521466245,nV_V,1,373.526483714,374.794136322,1,1,0.791946222074,375.606653949,1,1,0.571467740519,5,6.5,32,bw,99.7816723446,2019_may_15_0945,010,256,20,5,pedro,Experiment_EEG_version,20,
Nonliving_Things,../experiment_stimuli/bw_bc_bl/Nonliving_Things/Furniture/bedside-table_0.jpg,Furniture,0,bedside-table,0,88,88,6,377.911012342,V_nV,2,377.915889133,379.20372122,1,2,0.741828368336,379.966126759,1,1,0.371041088249,5,7.5,32,bw,99.7816723446,2019_may_15_0945,010,256,20,5,pedro,Experiment_EEG_version,20,
Nonliving_Things,../experiment_stimuli/bw_bc_bl/Nonliving_Things/Tools/hammer_6.jpg,Tools,0,hammer,0,89,89,37,382.070050079,nV_V,1,382.076460777,383.382811395,1,1,0.671697895101,384.075090488,1,1,0.260787874169,5,7.0,32,bw,99.7816723446,2019_may_15_0945,010,256,20,5,pedro,Experiment_EEG_version,20,
Nonliving_Things,../experiment_stimuli/bw_bc_bl/Nonliving_Things/Musical_Inst/piano__26.jpg,Musical_Inst,0,piano,0,90,90,62,386.068742917,nV_V,1,386.073718466,387.421601407,1,1,0.69175600278,388.133912333,2,0,0.25061729044,5,6.5,32,bw,99.7816723446,2019_may_15_0945,010,256,20,5,pedro,Experiment_EEG_version,20,
Nonliving_Things,../experiment_stimuli/bw_bc_bl/Nonliving_Things/Vehicles/tractor_9.jpg,Vehicles,0,tractor,0,91,91,86,390.117541627,V_nV,2,390.122364296,391.450351025,1,2,0.691733961576,392.162635831,3,0,0.25076134858,5,6.5,32,bw,99.7816723446,2019_may_15_0945,010,256,20,5,pedro,Experiment_EEG_version,20,
Nonliving_Things,../experiment_stimuli/bw_bc_bl/Nonliving_Things/Musical_Inst/saxophone_11.jpg,Musical_Inst,0,saxophone,0,92,92,72,394.146302603,V_nV,2,394.15123504,395.45906296,1,2,1.85425897408,397.333862046,1,1,0.371034321783,5,6.0,32,bw,99.7816723446,2019_may_15_0945,010,256,20,5,pedro,Experiment_EEG_version,20,
Nonliving_Things,../experiment_stimuli/bw_bc_bl/Nonliving_Things/Furniture/Chest-of-drawers_17.jpg,Furniture,0,Chest-of-drawers,0,93,93,0,399.437813162,nV_V,1,399.442547914,400.79065034,1,1,1.13269169937,401.943890268,3,0,0.531379942666,5,7.5,32,bw,99.7816723446,2019_may_15_0945,010,256,20,5,pedro,Experiment_EEG_version,20,
Living_Things,../experiment_stimuli/bw_bc_bl/Living_Things/Birds/pigeon_14.jpg,Birds,0,pigeon,0,94,94,63,404.20818046,V_nV,1,404.21303577,405.52094155,1,1,1.04249630653,406.583980247,1,1,0.701740705816,5,6.0,32,bw,99.7816723446,2019_may_15_0945,010,256,20,5,pedro,Experiment_EEG_version,20,
Living_Things,../experiment_stimuli/bw_bc_bl/Living_Things/Insects/butterfly_21.jpg,Insects,0,butterfly,0,95,95,10,409.018650608,nV_V,2,409.023375078,410.351434355,1,2,0.531393194164,410.903398097,3,0,0.320926166838,5,6.5,32,bw,99.7816723446,2019_may_15_0945,010,256,20,5,pedro,Experiment_EEG_version,20,
