category,probe_path,subcategory,fixation_duration,label,trials.thisRepN,trials.thisTrialN,trials.thisN,trials.thisIndex,image_onset_time,response_window,correctAns,probe_onset,discrim_resptime,response.corr,response.keys,response.rt,visible_resptime,visible.keys,visible.corr,visible.rt,probeFrames,jitter2,n_square,experiment_color,frameRate,date,session,image_size,premask_dur,probeFrames,participant,expName,postmask_dur,
Nonliving_Things,../experiment_stimuli/bw_bc_bl/Nonliving_Things/Vehicles/ship_18.jpg,Vehicles,0,ship,0,0,0,76,3.71894785541,nV_V,1,3.74153254338,5.00160738052,1,1,0.872126551054,5.90456930583,2,0,0.561458977696,5,6.0,32,bw,99.7798572655,2019_may_15_1107,018,256,20,5,pedro,Experiment_EEG_version,20,
Living_Things,../experiment_stimuli/bw_bc_bl/Living_Things/Animals/giraffe_10.jpg,Animals,0,giraffe,0,1,1,32,8.19864447374,nV_V,2,8.2036599096,9.46130244713,1,2,0.912204436027,10.3940525434,1,1,0.320915456628,5,6.5,32,bw,99.7798572655,2019_may_15_1107,018,256,20,5,pedro,Experiment_EEG_version,20,
Living_Things,../experiment_stimuli/bw_bc_bl/Living_Things/Birds/ostrich_4.jpg,Birds,0,ostrich,0,2,2,56,12.4478862537,V_nV,1,12.4527548005,13.7406085745,1,1,0.781925320451,14.5430572663,2,0,0.371032622526,5,6.0,32,bw,99.7798572655,2019_may_15_1107,018,256,20,5,pedro,Experiment_EEG_version,20,
Nonliving_Things,../experiment_stimuli/bw_bc_bl/Nonliving_Things/Kitchen_Uten/saucepan_0.jpg,Kitchen_Uten,0,saucepan,0,3,3,71,16.6470402769,V_nV,2,16.6519209252,17.929696802,1,2,1.4132931619,19.3635628723,3,0,0.411109289154,5,7.5,32,bw,99.7798572655,2019_may_15_1107,018,256,20,5,pedro,Experiment_EEG_version,20,
Living_Things,../experiment_stimuli/bw_bc_bl/Living_Things/Marine_creatures/pomfret_13.jpg,Marine_creatures,0,pomfret,0,4,4,65,21.5075963882,V_nV,1,21.5124294131,22.7601973062,0,2,0.982375566091,23.7631451755,1,1,0.140542005887,5,6.5,32,bw,99.7798572655,2019_may_15_1107,018,256,20,5,pedro,Experiment_EEG_version,20,
Nonliving_Things,../experiment_stimuli/bw_bc_bl/Nonliving_Things/Tools/hammer_1.jpg,Tools,0,hammer,0,5,5,37,25.6365459771,V_nV,2,25.64147532,26.9092171079,1,2,1.05251454655,27.9822785295,2,0,0.140539735556,5,6.0,32,bw,99.7798572655,2019_may_15_1107,018,256,20,5,pedro,Experiment_EEG_version,20,
Living_Things,../experiment_stimuli/bw_bc_bl/Living_Things/Birds/owl_20.jpg,Birds,0,owl,0,6,6,57,29.8557207516,nV_V,2,29.8612525556,31.1183657137,1,2,1.27298485162,32.4119025341,1,1,0.110488789971,5,6.5,32,bw,99.7798572655,2019_may_15_1107,018,256,20,5,pedro,Experiment_EEG_version,20,
Nonliving_Things,../experiment_stimuli/bw_bc_bl/Nonliving_Things/Musical_Inst/piano__21.jpg,Musical_Inst,0,piano,0,7,7,62,34.2553065133,nV_V,1,34.260176406,35.5479938236,1,1,1.01242211711,36.5809635788,3,0,0.190634657221,5,6.0,32,bw,99.7798572655,2019_may_15_1107,018,256,20,5,pedro,Experiment_EEG_version,20,
Living_Things,../experiment_stimuli/bw_bc_bl/Living_Things/Marine_creatures/dolphin_9.jpg,Marine_creatures,0,dolphin,0,8,8,23,38.5045229588,V_nV,1,38.5093930695,39.7671755113,0,2,1.1627529079,40.950472076,1,1,0.110453771544,5,6.0,32,bw,99.7798572655,2019_may_15_1107,018,256,20,5,pedro,Experiment_EEG_version,20,
Nonliving_Things,../experiment_stimuli/bw_bc_bl/Nonliving_Things/Musical_Inst/guitar_17.jpg,Musical_Inst,0,guitar,0,9,9,36,42.7938456685,nV_V,1,42.7992845981,44.086552734,1,1,0.781919775589,44.8890313651,3,0,0.110309920041,5,6.0,32,bw,99.7798572655,2019_may_15_1107,018,256,20,5,pedro,Experiment_EEG_version,20,
Nonliving_Things,../experiment_stimuli/bw_bc_bl/Nonliving_Things/Musical_Inst/trumpet_14.jpg,Musical_Inst,0,trumpet,0,10,10,88,46.7324038789,V_nV,2,46.7373722062,48.0050701372,1,2,0.71177350916,48.7374053408,3,0,0.12048963533,5,6.0,32,bw,99.7798572655,2019_may_15_1107,018,256,20,5,pedro,Experiment_EEG_version,20,
Living_Things,../experiment_stimuli/bw_bc_bl/Living_Things/Birds/hummingbird_12.jpg,Birds,0,hummingbird,0,11,11,42,50.5907915909,V_nV,1,50.5963875859,51.8333957348,1,1,0.80196558981,52.6559041281,1,1,0.100445441145,5,6.0,32,bw,99.7798572655,2019_may_15_1107,018,256,20,5,pedro,Experiment_EEG_version,20,
Living_Things,../experiment_stimuli/bw_bc_bl/Living_Things/Marine_creatures/killer-whale_22.jpg,Marine_creatures,0,killer-whale,0,12,12,43,54.4892867546,nV_V,2,54.4941604141,55.7619293369,1,2,0.852128438943,56.6345964029,2,0,0.130352888955,5,8.0,32,bw,99.7798572655,2019_may_15_1107,018,256,20,5,pedro,Experiment_EEG_version,20,
Nonliving_Things,../experiment_stimuli/bw_bc_bl/Nonliving_Things/Vehicles/plane_1.jpg,Vehicles,0,plane,0,13,13,64,58.4979736488,V_nV,2,58.503469773,59.760619028,0,1,0.721792602679,60.5029836182,2,0,0.320955963398,5,6.0,32,bw,99.7798572655,2019_may_15_1107,018,256,20,5,pedro,Experiment_EEG_version,20,
Nonliving_Things,../experiment_stimuli/bw_bc_bl/Nonliving_Things/Furniture/bedside-table_21.jpg,Furniture,0,bedside-table,0,14,14,6,62.5567953248,nV_V,1,62.5629976721,63.8094194416,1,1,1.03231070808,64.8622941448,1,1,0.120496342017,5,7.0,32,bw,99.7798572655,2019_may_15_1107,018,256,20,5,pedro,Experiment_EEG_version,20,
Living_Things,../experiment_stimuli/bw_bc_bl/Living_Things/Animals/elephant_9.jpg,Animals,0,elephant,0,15,15,27,66.7158382572,nV_V,2,66.7207455704,67.9784812305,1,2,0.761904509447,68.7609365623,3,0,0.200674983149,5,6.5,32,bw,99.7798572655,2019_may_15_1107,018,256,20,5,pedro,Experiment_EEG_version,20,
Nonliving_Things,../experiment_stimuli/bw_bc_bl/Nonliving_Things/Musical_Inst/tuba_21.jpg,Musical_Inst,0,tuba,0,16,16,89,70.6944852243,V_nV,2,70.7000913696,71.9370939997,1,2,0.982358194306,72.9399859676,1,1,0.120480710641,5,6.0,32,bw,99.7798572655,2019_may_15_1107,018,256,20,5,pedro,Experiment_EEG_version,20,
Living_Things,../experiment_stimuli/bw_bc_bl/Living_Things/Animals/tiger_18.jpg,Animals,0,tiger,0,17,17,84,74.7933915293,nV_V,2,74.7983882884,76.046027552,1,2,0.701591801771,76.768161176,1,1,0.0403571814531,5,6.5,32,bw,99.7798572655,2019_may_15_1107,018,256,20,5,pedro,Experiment_EEG_version,20,
Living_Things,../experiment_stimuli/bw_bc_bl/Living_Things/Insects/scorpion_17.jpg,Insects,0,scorpion,0,18,18,73,78.5415396171,nV_V,2,78.5467088738,79.8242298596,1,2,0.992396464047,80.8371693943,1,1,0.110471203749,5,6.0,32,bw,99.7798572655,2019_may_15_1107,018,256,20,5,pedro,Experiment_EEG_version,20,
Nonliving_Things,../experiment_stimuli/bw_bc_bl/Nonliving_Things/Kitchen_Uten/small-saucepan_13.jpg,Kitchen_Uten,0,small-saucepan,0,19,19,77,82.6805404792,V_nV,2,82.6855522158,83.9932956975,1,2,1.00243142922,85.0162878548,1,1,0.35100731533,5,7.5,32,bw,99.7798572655,2019_may_15_1107,018,256,20,5,pedro,Experiment_EEG_version,20,
Nonliving_Things,../experiment_stimuli/bw_bc_bl/Nonliving_Things/Furniture/bookcase_2.jpg,Furniture,0,bookcase,0,20,20,8,87.1001441011,nV_V,1,87.105100658,88.4429735915,1,1,0.922249893716,89.3857772094,3,0,0.150545896555,5,6.5,32,bw,99.7798572655,2019_may_15_1107,018,256,20,5,pedro,Experiment_EEG_version,20,
Living_Things,../experiment_stimuli/bw_bc_bl/Living_Things/Marine_creatures/crab_18.jpg,Marine_creatures,0,crab,0,21,21,21,91.26920889,V_nV,1,91.2756038209,92.5919951637,1,1,0.661707771476,93.2742466223,3,0,0.13034988899,5,6.0,32,bw,99.7798572655,2019_may_15_1107,018,256,20,5,pedro,Experiment_EEG_version,20,
Nonliving_Things,../experiment_stimuli/bw_bc_bl/Nonliving_Things/Buildings/castle_22.jpg,Buildings,0,castle,0,22,22,12,95.1376258307,V_nV,2,95.1425030164,96.4403488238,1,2,0.932092195959,97.3929957258,3,0,0.120338404377,5,7.5,32,bw,99.7798572655,2019_may_15_1107,018,256,20,5,pedro,Experiment_EEG_version,20,
Living_Things,../experiment_stimuli/bw_bc_bl/Living_Things/Birds/goose_20.jpg,Birds,0,goose,0,23,23,34,99.246548338,nV_V,2,99.251400054,100.519220059,1,2,1.27299064462,101.812766522,3,0,0.601532306406,5,6.0,32,bw,99.7798572655,2019_may_15_1107,018,256,20,5,pedro,Experiment_EEG_version,20,
Nonliving_Things,../experiment_stimuli/bw_bc_bl/Nonliving_Things/Buildings/granary_16.jpg,Buildings,0,granary,0,24,24,35,104.147210025,V_nV,2,104.152119353,105.389820049,1,2,1.35320710513,106.763625005,1,1,0.100508951524,5,6.5,32,bw,99.7798572655,2019_may_15_1107,018,256,20,5,pedro,Experiment_EEG_version,20,
Living_Things,../experiment_stimuli/bw_bc_bl/Living_Things/Animals/zebra_6.jpg,Animals,0,zebra,0,25,25,95,108.596881243,V_nV,1,108.601852514,109.859521269,1,1,0.822014757781,110.702091488,1,1,0.290855650441,5,6.5,32,bw,99.7798572655,2019_may_15_1107,018,256,20,5,pedro,Experiment_EEG_version,20,
Living_Things,../experiment_stimuli/bw_bc_bl/Living_Things/Birds/barn-owl_23.jpg,Birds,0,barn-owl,0,26,26,4,112.725869835,nV_V,2,112.731586445,113.998520744,1,2,0.98236486339,115.01144803,2,0,0.140523036534,5,6.0,32,bw,99.7798572655,2019_may_15_1107,018,256,20,5,pedro,Experiment_EEG_version,20,
Living_Things,../experiment_stimuli/bw_bc_bl/Living_Things/Insects/butterfly_13.jpg,Insects,0,butterfly,0,27,27,10,116.884891809,nV_V,2,116.889828265,118.147547553,1,2,1.01244161668,119.180526436,2,0,0.280838470266,5,6.0,32,bw,99.7798572655,2019_may_15_1107,018,256,20,5,pedro,Experiment_EEG_version,20,
Living_Things,../experiment_stimuli/bw_bc_bl/Living_Things/Marine_creatures/sperm-whale_10.jpg,Marine_creatures,0,sperm-whale,0,28,28,80,121.194260566,nV_V,2,121.199865211,122.446880393,1,2,0.431214290496,122.898655803,1,1,0.110457970528,5,6.0,32,bw,99.7798572655,2019_may_15_1107,018,256,20,5,pedro,Experiment_EEG_version,20,
Living_Things,../experiment_stimuli/bw_bc_bl/Living_Things/Insects/dragonfly_0.jpg,Insects,0,dragonfly,0,29,29,24,124.741967919,V_nV,1,124.746955393,126.014651944,1,1,0.882146524207,126.917339114,3,0,0.220547946694,5,6.0,32,bw,99.7798572655,2019_may_15_1107,018,256,20,5,pedro,Experiment_EEG_version,20,
Nonliving_Things,../experiment_stimuli/bw_bc_bl/Nonliving_Things/Buildings/house_26.jpg,Buildings,0,house,0,30,30,41,128.870949876,nV_V,1,128.876646392,130.113558276,1,1,1.34314321884,131.477246426,1,1,0.190624431823,5,6.0,32,bw,99.7798572655,2019_may_15_1107,018,256,20,5,pedro,Experiment_EEG_version,20,
Living_Things,../experiment_stimuli/bw_bc_bl/Living_Things/Birds/sparrow_9.jpg,Birds,0,sparrow,0,31,31,79,133.400792697,V_nV,1,133.407398595,134.663442347,1,1,0.832037865883,135.516043453,2,0,0.1205067439,5,6.5,32,bw,99.7798572655,2019_may_15_1107,018,256,20,5,pedro,Experiment_EEG_version,20,
Nonliving_Things,../experiment_stimuli/bw_bc_bl/Nonliving_Things/Buildings/cathedral_16.jpg,Buildings,0,cathedral,0,32,32,14,137.369431169,nV_V,1,137.374362357,138.622041542,0,2,1.13268407504,139.775284991,1,1,0.902179549157,5,6.0,32,bw,99.7798572655,2019_may_15_1107,018,256,20,5,pedro,Experiment_EEG_version,20,
Nonliving_Things,../experiment_stimuli/bw_bc_bl/Nonliving_Things/Furniture/filling-cabinet_19.jpg,Furniture,0,filling-cabinet,0,33,33,29,142.410374813,nV_V,1,142.416034134,143.683047492,1,1,0.872126389528,144.575721043,2,0,0.120480563841,5,6.5,32,bw,99.7798572655,2019_may_15_1107,018,256,20,5,pedro,Experiment_EEG_version,20,
Living_Things,../experiment_stimuli/bw_bc_bl/Living_Things/Animals/rhino_19.jpg,Animals,0,rhino,0,34,34,68,146.429112721,nV_V,2,146.434931852,147.69176042,0,1,0.832035535132,148.544376175,1,1,0.120486391184,5,6.5,32,bw,99.7798572655,2019_may_15_1107,018,256,20,5,pedro,Experiment_EEG_version,20,
Living_Things,../experiment_stimuli/bw_bc_bl/Living_Things/Animals/cow_26.jpg,Animals,0,cow,0,35,35,20,150.397741185,V_nV,1,150.402864544,151.670407522,1,1,1.07257682312,152.763547619,1,1,0.130500943051,5,6.5,32,bw,99.7798572655,2019_may_15_1107,018,256,20,5,pedro,Experiment_EEG_version,20,
Nonliving_Things,../experiment_stimuli/bw_bc_bl/Nonliving_Things/Vehicles/motorbike_25.jpg,Vehicles,0,motorbike,0,36,36,54,154.626941488,nV_V,1,154.631924241,155.909630145,1,1,0.922226855997,156.852405831,3,0,0.120474767289,5,6.0,32,bw,99.7798572655,2019_may_15_1107,018,256,20,5,pedro,Experiment_EEG_version,20,
Nonliving_Things,../experiment_stimuli/bw_bc_bl/Nonliving_Things/Vehicles/bus_4.jpg,Vehicles,0,bus,0,37,37,9,158.705815769,nV_V,1,158.71067897,159.958426393,1,1,0.91204319743,160.891023699,1,1,0.120497890806,5,6.0,32,bw,99.7798572655,2019_may_15_1107,018,256,20,5,pedro,Experiment_EEG_version,20,
Nonliving_Things,../experiment_stimuli/bw_bc_bl/Nonliving_Things/Buildings/factory_7.jpg,Buildings,0,factory,0,38,38,28,162.744577183,nV_V,1,162.74953948,164.007225915,1,1,0.751862299861,164.77966188,1,1,0.100457053573,5,6.5,32,bw,99.7798572655,2019_may_15_1107,018,256,20,5,pedro,Experiment_EEG_version,20,
Nonliving_Things,../experiment_stimuli/bw_bc_bl/Nonliving_Things/Vehicles/tractor_22.jpg,Vehicles,0,tractor,0,39,39,86,166.612989116,nV_V,1,166.619045179,167.895679881,1,1,0.501305644051,168.418680207,3,0,0.0904164458625,5,6.5,32,bw,99.7798572655,2019_may_15_1107,018,256,20,5,pedro,Experiment_EEG_version,20,
Living_Things,../experiment_stimuli/bw_bc_bl/Living_Things/Birds/hen_9.jpg,Birds,0,hen,0,40,40,38,170.240873772,nV_V,2,170.245748574,171.503523486,1,2,0.862102762214,172.386198623,1,1,0.100575601158,5,6.5,32,bw,99.7798572655,2019_may_15_1107,018,256,20,5,pedro,Experiment_EEG_version,20,
Nonliving_Things,../experiment_stimuli/bw_bc_bl/Nonliving_Things/Furniture/lectern_24.jpg,Furniture,0,lectern,0,41,41,47,174.219531494,V_nV,2,174.225358798,175.512240304,1,2,0.741862063238,176.274660795,1,1,0.110456117312,5,7.0,32,bw,99.7798572655,2019_may_15_1107,018,256,20,5,pedro,Experiment_EEG_version,20,
Living_Things,../experiment_stimuli/bw_bc_bl/Living_Things/Birds/duck_2.jpg,Birds,0,duck,0,42,42,26,178.117997208,V_nV,1,178.124003479,179.420734129,1,1,0.741837251524,180.183117839,3,0,0.100437907444,5,7.5,32,bw,99.7798572655,2019_may_15_1107,018,256,20,5,pedro,Experiment_EEG_version,20,
Nonliving_Things,../experiment_stimuli/bw_bc_bl/Nonliving_Things/Kitchen_Uten/frying-pan_10.jpg,Kitchen_Uten,0,frying-pan,0,43,43,31,182.016497962,V_nV,2,182.021366302,183.289140743,1,2,1.49350432894,184.803201153,3,0,0.761879671249,5,6.0,32,bw,99.7798572655,2019_may_15_1107,018,256,20,5,pedro,Experiment_EEG_version,20,
Living_Things,../experiment_stimuli/bw_bc_bl/Living_Things/Animals/armadillo_0.jpg,Animals,0,armadillo,0,44,44,1,187.297952808,nV_V,2,187.302829148,188.550573372,0,1,1.37322840095,189.944369118,1,1,0.12048002251,5,6.0,32,bw,99.7798572655,2019_may_15_1107,018,256,20,5,pedro,Experiment_EEG_version,20,
Living_Things,../experiment_stimuli/bw_bc_bl/Living_Things/Marine_creatures/shark_20.jpg,Marine_creatures,0,shark,0,45,45,75,191.797758789,V_nV,1,191.802687906,193.070406645,1,1,0.902231992048,193.993182625,2,0,0.0802437906386,5,7.5,32,bw,99.7798572655,2019_may_15_1107,018,256,20,5,pedro,Experiment_EEG_version,20,
Living_Things,../experiment_stimuli/bw_bc_bl/Living_Things/Birds/penguin_10.jpg,Birds,0,penguin,0,46,46,61,195.806449446,V_nV,1,195.811314696,197.06909316,1,1,0.581504010363,197.671165316,2,0,0.130531487579,5,6.0,32,bw,99.7798572655,2019_may_15_1107,018,256,20,5,pedro,Experiment_EEG_version,20,
Living_Things,../experiment_stimuli/bw_bc_bl/Living_Things/Birds/raven_8.jpg,Birds,0,raven,0,47,47,67,199.534552234,V_nV,1,199.539467014,200.787178678,0,2,0.531403235567,201.339127067,1,1,0.100434136984,5,6.5,32,bw,99.7798572655,2019_may_15_1107,018,256,20,5,pedro,Experiment_EEG_version,20,
Nonliving_Things,../experiment_stimuli/bw_bc_bl/Nonliving_Things/Furniture/chair_0.jpg,Furniture,0,chair,0,48,48,15,203.172495427,nV_V,1,203.178651835,204.445136633,1,1,0.681730447104,205.14741138,1,1,0.120476233074,5,7.0,32,bw,99.7798572655,2019_may_15_1107,018,256,20,5,pedro,Experiment_EEG_version,20,
Living_Things,../experiment_stimuli/bw_bc_bl/Living_Things/Animals/lioness_19.jpg,Animals,0,lioness,0,49,49,48,207.000821998,V_nV,1,207.005774589,208.283476922,0,2,1.02245071781,209.32649107,1,1,0.0403583768639,5,7.5,32,bw,99.7798572655,2019_may_15_1107,018,256,20,5,pedro,Experiment_EEG_version,20,
Living_Things,../experiment_stimuli/bw_bc_bl/Living_Things/Animals/turtle_19.jpg,Animals,0,turtle,0,50,50,90,211.099695931,V_nV,1,211.104777106,212.402430759,1,1,0.902192530339,213.325191025,2,0,0.160570083826,5,6.5,32,bw,99.7798572655,2019_may_15_1107,018,256,20,5,pedro,Experiment_EEG_version,20,
Living_Things,../experiment_stimuli/bw_bc_bl/Living_Things/Animals/cat_10.jpg,Animals,0,cat,0,51,51,13,215.218651708,V_nV,1,215.223506522,216.511367469,1,1,0.611551170412,217.153490006,2,0,0.120509308123,5,7.0,32,bw,99.7798572655,2019_may_15_1107,018,256,20,5,pedro,Experiment_EEG_version,20,
Nonliving_Things,../experiment_stimuli/bw_bc_bl/Nonliving_Things/Tools/axe_6.jpg,Tools,0,axe,0,52,52,3,219.006882365,V_nV,2,219.013017251,220.289570337,1,2,0.561449696077,220.871573847,1,1,0.100438219262,5,6.0,32,bw,99.7798572655,2019_may_15_1107,018,256,20,5,pedro,Experiment_EEG_version,20,
Nonliving_Things,../experiment_stimuli/bw_bc_bl/Nonliving_Things/Kitchen_Uten/teapot_23.jpg,Kitchen_Uten,0,teapot,0,53,53,83,222.704953869,nV_V,1,222.711009936,223.997638262,1,1,1.18279948516,225.20098584,3,0,0.270831508329,5,6.5,32,bw,99.7798572655,2019_may_15_1107,018,256,20,5,pedro,Experiment_EEG_version,20,
Living_Things,../experiment_stimuli/bw_bc_bl/Living_Things/Animals/horse_24.jpg,Animals,0,horse,0,54,54,40,227.204700467,V_nV,1,227.211936559,228.467349696,0,2,0.942296068766,229.430219568,1,1,0.0603465568274,5,6.0,32,bw,99.7798572655,2019_may_15_1107,018,256,20,5,pedro,Experiment_EEG_version,20,
Living_Things,../experiment_stimuli/bw_bc_bl/Living_Things/Birds/seagull_5.jpg,Birds,0,seagull,0,55,55,74,231.223436732,nV_V,2,231.228522505,232.49610772,1,2,1.57367478585,234.090337978,1,1,0.100437546556,5,6.5,32,bw,99.7798572655,2019_may_15_1107,018,256,20,5,pedro,Experiment_EEG_version,20,
Living_Things,../experiment_stimuli/bw_bc_bl/Living_Things/Birds/pelican_14.jpg,Birds,0,pelican,0,56,56,60,235.923659395,nV_V,2,235.928666455,237.206347999,0,1,1.40327698924,238.630189717,1,1,0.140549629752,5,6.0,32,bw,99.7798572655,2019_may_15_1107,018,256,20,5,pedro,Experiment_EEG_version,20,
Nonliving_Things,../experiment_stimuli/bw_bc_bl/Nonliving_Things/Kitchen_Uten/cup_20.jpg,Kitchen_Uten,0,cup,0,57,57,22,240.503609969,V_nV,2,240.508419532,241.806346184,1,2,0.711794388539,242.538692117,3,0,0.110477207287,5,6.0,32,bw,99.7798572655,2019_may_15_1107,018,256,20,5,pedro,Experiment_EEG_version,20,
Nonliving_Things,../experiment_stimuli/bw_bc_bl/Nonliving_Things/Furniture/Chest-of-drawers_7.jpg,Furniture,0,Chest-of-drawers,0,58,58,0,244.382042251,V_nV,2,244.386937891,245.664731866,1,2,0.631672179094,246.31694283,1,1,0.0603898980771,5,7.5,32,bw,99.7798572655,2019_may_15_1107,018,256,20,5,pedro,Experiment_EEG_version,20,
Nonliving_Things,../experiment_stimuli/bw_bc_bl/Nonliving_Things/Buildings/mill_1.jpg,Buildings,0,mill,0,59,59,53,248.110141915,V_nV,2,248.116324319,249.422903054,1,2,0.751859077951,250.195327639,2,0,0.110478218354,5,7.5,32,bw,99.7798572655,2019_may_15_1107,018,256,20,5,pedro,Experiment_EEG_version,20,
Living_Things,../experiment_stimuli/bw_bc_bl/Living_Things/Animals/cheetah_9.jpg,Animals,0,cheetah,0,60,60,16,252.038683848,V_nV,1,252.043715178,253.341424973,1,1,0.631641074258,253.993638527,2,0,0.100441787101,5,6.5,32,bw,99.7798572655,2019_may_15_1107,018,256,20,5,pedro,Experiment_EEG_version,20,
Nonliving_Things,../experiment_stimuli/bw_bc_bl/Nonliving_Things/Kitchen_Uten/fondue_17.jpg,Kitchen_Uten,0,fondue,0,61,61,30,255.826936775,nV_V,1,255.831811814,257.119640987,1,1,0.902215120092,258.042415448,3,0,0.100446471188,5,7.5,32,bw,99.7798572655,2019_may_15_1107,018,256,20,5,pedro,Experiment_EEG_version,20,
Living_Things,../experiment_stimuli/bw_bc_bl/Living_Things/Animals/lynx_24.jpg,Animals,0,lynx,0,62,62,50,259.875729396,nV_V,2,259.881812158,261.138379546,1,2,0.801973740105,261.960882213,2,0,0.120487191714,5,6.5,32,bw,99.7798572655,2019_may_15_1107,018,256,20,5,pedro,Experiment_EEG_version,20,
Living_Things,../experiment_stimuli/bw_bc_bl/Living_Things/Marine_creatures/narwhal_13.jpg,Marine_creatures,0,narwhal,0,63,63,55,263.814281602,nV_V,2,263.81919284,265.066907794,1,2,0.541588969354,265.629064668,2,0,0.130354260968,5,6.0,32,bw,99.7798572655,2019_may_15_1107,018,256,20,5,pedro,Experiment_EEG_version,20,
Living_Things,../experiment_stimuli/bw_bc_bl/Living_Things/Birds/rooster_5.jpg,Birds,0,rooster,0,64,64,70,267.492280841,V_nV,1,267.498417362,268.744921078,1,1,0.822086365719,269.59757848,1,1,0.110471064516,5,7.0,32,bw,99.7798572655,2019_may_15_1107,018,256,20,5,pedro,Experiment_EEG_version,20,
Living_Things,../experiment_stimuli/bw_bc_bl/Living_Things/Birds/goldfinch_10.jpg,Birds,0,goldfinch,0,65,65,33,271.44086131,V_nV,1,271.445641866,272.713537031,1,1,0.511339511431,273.255447247,1,1,0.120506646519,5,6.5,32,bw,99.7798572655,2019_may_15_1107,018,256,20,5,pedro,Experiment_EEG_version,20,
Nonliving_Things,../experiment_stimuli/bw_bc_bl/Nonliving_Things/Furniture/rocking-chair_12.jpg,Furniture,0,rocking-chair,0,66,66,69,275.108840494,nV_V,1,275.115010574,276.411573254,1,1,0.942276377347,277.38442996,2,0,0.320944806037,5,8.0,32,bw,99.7798572655,2019_may_15_1107,018,256,20,5,pedro,Experiment_EEG_version,20,
Living_Things,../experiment_stimuli/bw_bc_bl/Living_Things/Marine_creatures/lobster_11.jpg,Marine_creatures,0,lobster,0,67,67,49,279.438255602,nV_V,2,279.443113319,280.730964138,1,2,0.741858740279,281.493386335,1,1,0.070370612666,5,6.0,32,bw,99.7798572655,2019_may_15_1107,018,256,20,5,pedro,Experiment_EEG_version,20,
Nonliving_Things,../experiment_stimuli/bw_bc_bl/Nonliving_Things/Vehicles/car_12.jpg,Vehicles,0,car,0,68,68,11,283.296660645,V_nV,2,283.301564124,284.599371225,1,2,1.51352304587,286.133462146,3,0,0.230722274689,5,6.0,32,bw,99.7798572655,2019_may_15_1107,018,256,20,5,pedro,Experiment_EEG_version,20,
Living_Things,../experiment_stimuli/bw_bc_bl/Living_Things/Animals/hippopotamus_20.jpg,Animals,0,hippopotamus,0,69,69,39,288.097067013,V_nV,1,288.101901962,289.379762492,1,1,0.62160512025,290.021919683,2,0,0.140521683206,5,6.5,32,bw,99.7798572655,2019_may_15_1107,018,256,20,5,pedro,Experiment_EEG_version,20,
Nonliving_Things,../experiment_stimuli/bw_bc_bl/Nonliving_Things/Musical_Inst/violin_22.jpg,Musical_Inst,0,violin,0,70,70,92,291.895326815,V_nV,2,291.901518147,293.167999739,1,2,0.862122528895,294.050682372,3,0,0.120478661614,5,6.0,32,bw,99.7798572655,2019_may_15_1107,018,256,20,5,pedro,Experiment_EEG_version,20,
Living_Things,../experiment_stimuli/bw_bc_bl/Living_Things/Birds/kiwi_6.jpg,Birds,0,kiwi,0,71,71,44,295.904050787,V_nV,1,295.908825685,297.166692998,1,1,0.631599879358,297.81883329,1,1,0.11045592936,5,6.5,32,bw,99.7798572655,2019_may_15_1107,018,256,20,5,pedro,Experiment_EEG_version,20,
Nonliving_Things,../experiment_stimuli/bw_bc_bl/Nonliving_Things/Buildings/church_20.jpg,Buildings,0,church,0,72,72,17,299.66221554,V_nV,2,299.667117492,300.934880411,1,2,0.751861420169,301.707299124,3,0,0.310889491404,5,6.0,32,bw,99.7798572655,2019_may_15_1107,018,256,20,5,pedro,Experiment_EEG_version,20,
Living_Things,../experiment_stimuli/bw_bc_bl/Living_Things/Birds/partridge_23.jpg,Birds,0,partridge,0,73,73,59,303.751114398,nV_V,2,303.755942411,305.003726714,0,1,1.23290376039,306.257204691,1,1,0.120477718185,5,7.0,32,bw,99.7798572655,2019_may_15_1107,018,256,20,5,pedro,Experiment_EEG_version,20,
Nonliving_Things,../experiment_stimuli/bw_bc_bl/Nonliving_Things/Musical_Inst/drum_16.jpg,Musical_Inst,0,drum,0,74,74,25,308.110589494,V_nV,2,308.116712489,309.373246065,1,2,0.862126292137,310.255913284,2,0,0.140528130287,5,8.0,32,bw,99.7798572655,2019_may_15_1107,018,256,20,5,pedro,Experiment_EEG_version,20,
Nonliving_Things,../experiment_stimuli/bw_bc_bl/Nonliving_Things/Furniture/couch_23.jpg,Furniture,0,couch,0,75,75,19,312.129313688,nV_V,1,312.134152851,313.38194059,1,1,0.711772377777,314.114266117,1,1,0.120497146447,5,6.0,32,bw,99.7798572655,2019_may_15_1107,018,256,20,5,pedro,Experiment_EEG_version,20,
Nonliving_Things,../experiment_stimuli/bw_bc_bl/Nonliving_Things/Furniture/wardrobe_21.jpg,Furniture,0,wardrobe,0,76,76,93,315.967659093,nV_V,1,315.972349097,317.240325821,1,1,0.781922632712,318.04281511,2,0,0.0603992893011,5,6.5,32,bw,99.7798572655,2019_may_15_1107,018,256,20,5,pedro,Experiment_EEG_version,20,
Nonliving_Things,../experiment_stimuli/bw_bc_bl/Nonliving_Things/Furniture/sofa_4.jpg,Furniture,0,sofa,0,77,77,78,319.83607377,nV_V,1,319.840775297,321.098713469,1,1,0.651641411881,321.770900812,2,0,0.120524059806,5,7.5,32,bw,99.7798572655,2019_may_15_1107,018,256,20,5,pedro,Experiment_EEG_version,20,
Nonliving_Things,../experiment_stimuli/bw_bc_bl/Nonliving_Things/Buildings/palace_1.jpg,Buildings,0,palace,0,78,78,58,323.624302265,nV_V,1,323.630537736,324.876928175,1,1,0.641622957424,325.539105553,1,1,0.100437467743,5,6.5,32,bw,99.7798572655,2019_may_15_1107,018,256,20,5,pedro,Experiment_EEG_version,20,
Nonliving_Things,../experiment_stimuli/bw_bc_bl/Nonliving_Things/Vehicles/train_25.jpg,Vehicles,0,train,0,79,79,87,327.372474631,V_nV,2,327.377341467,328.635099634,1,2,0.801992168417,329.457639433,1,1,0.110457429546,5,6.5,32,bw,99.7798572655,2019_may_15_1107,018,256,20,5,pedro,Experiment_EEG_version,20,
Nonliving_Things,../experiment_stimuli/bw_bc_bl/Nonliving_Things/Musical_Inst/saxophone_5.jpg,Musical_Inst,0,saxophone,0,80,80,72,331.300985248,V_nV,2,331.305949087,332.583679547,0,1,1.10264083615,333.706892954,1,1,0.110492962471,5,6.5,32,bw,99.7798572655,2019_may_15_1107,018,256,20,5,pedro,Experiment_EEG_version,20,
Living_Things,../experiment_stimuli/bw_bc_bl/Living_Things/Birds/magpie_19.jpg,Birds,0,magpie,0,81,81,51,335.550238013,V_nV,1,335.555225058,336.862983915,1,1,0.481272408157,337.364809965,1,1,0.110473102075,5,7.5,32,bw,99.7798572655,2019_may_15_1107,018,256,20,5,pedro,Experiment_EEG_version,20,
Living_Things,../experiment_stimuli/bw_bc_bl/Living_Things/Birds/pigeon_17.jpg,Birds,0,pigeon,0,82,82,63,339.208179648,nV_V,2,339.213064228,340.551003165,1,2,0.761898509518,341.333459647,1,1,0.071507487155,5,6.5,32,bw,99.7798572655,2019_may_15_1107,018,256,20,5,pedro,Experiment_EEG_version,20,
Nonliving_Things,../experiment_stimuli/bw_bc_bl/Nonliving_Things/Kitchen_Uten/pot_20.jpg,Kitchen_Uten,0,pot,0,83,83,66,343.136734904,nV_V,1,343.141482588,344.509607257,1,1,1.07255565835,345.602702869,3,0,0.852072060166,5,6.0,32,bw,99.7798572655,2019_may_15_1107,018,256,20,5,pedro,Experiment_EEG_version,20,
Nonliving_Things,../experiment_stimuli/bw_bc_bl/Nonliving_Things/Furniture/lamp_9.jpg,Furniture,0,lamp,0,84,84,46,348.197752625,V_nV,2,348.202573635,349.560586506,1,2,0.972333988408,350.553495888,3,0,0.120487387234,5,6.0,32,bw,99.7798572655,2019_may_15_1107,018,256,20,5,pedro,Experiment_EEG_version,20,
Living_Things,../experiment_stimuli/bw_bc_bl/Living_Things/Birds/toucan_9.jpg,Birds,0,toucan,0,85,85,85,352.406873645,V_nV,1,352.41164222,353.739672723,1,1,0.671689895564,354.431929666,3,0,0.160590388288,5,7.0,32,bw,99.7798572655,2019_may_15_1107,018,256,20,5,pedro,Experiment_EEG_version,20,
Living_Things,../experiment_stimuli/bw_bc_bl/Living_Things/Insects/ladybird_16.jpg,Insects,0,ladybird,0,86,86,45,356.335426837,V_nV,1,356.340144458,357.628125399,1,1,0.571646869765,358.220324523,3,0,0.140547468327,5,6.0,32,bw,99.7798572655,2019_may_15_1107,018,256,20,5,pedro,Experiment_EEG_version,20,
Nonliving_Things,../experiment_stimuli/bw_bc_bl/Nonliving_Things/Furniture/armchair_20.jpg,Furniture,0,armchair,0,87,87,2,360.103601627,nV_V,1,360.108380517,361.376270506,1,1,0.902186857362,362.299017576,1,1,0.16041092074,5,6.5,32,bw,99.7798572655,2019_may_15_1107,018,256,20,5,pedro,Experiment_EEG_version,20,
Nonliving_Things,../experiment_stimuli/bw_bc_bl/Nonliving_Things/Kitchen_Uten/coking-pot_22.jpg,Kitchen_Uten,0,coking-pot,0,88,88,18,364.192487767,V_nV,2,364.197220552,365.475195427,1,2,1.01243258314,366.508166983,2,0,0.230745499895,5,8.0,32,bw,99.7798572655,2019_may_15_1107,018,256,20,5,pedro,Experiment_EEG_version,20,
Living_Things,../experiment_stimuli/bw_bc_bl/Living_Things/Animals/tapir_2.jpg,Animals,0,tapir,0,89,89,82,368.481819397,V_nV,1,368.486595468,369.754487009,0,2,0.731821590802,370.50689076,1,1,0.120534852729,5,6.0,32,bw,99.7798572655,2019_may_15_1107,018,256,20,5,pedro,Experiment_EEG_version,20,
Nonliving_Things,../experiment_stimuli/bw_bc_bl/Nonliving_Things/Vehicles/van_19.jpg,Vehicles,0,van,0,90,90,91,372.360253852,V_nV,2,372.365086309,373.652961286,1,2,1.24277454743,374.916297216,3,0,0.180632593518,5,8.0,32,bw,99.7798572655,2019_may_15_1107,018,256,20,5,pedro,Experiment_EEG_version,20,
Nonliving_Things,../experiment_stimuli/bw_bc_bl/Nonliving_Things/Vehicles/boat_23.jpg,Vehicles,0,boat,0,91,91,7,376.82996655,nV_V,1,376.834748647,378.092613384,1,1,1.02228688955,379.135457588,3,0,0.691726962046,5,6.0,32,bw,99.7798572655,2019_may_15_1107,018,256,20,5,pedro,Experiment_EEG_version,20,
Nonliving_Things,../experiment_stimuli/bw_bc_bl/Nonliving_Things/Furniture/bed_9.jpg,Furniture,0,bed,0,92,92,5,381.560269241,nV_V,1,381.565014342,382.802850588,1,1,0.290863372211,383.11426991,1,1,0.120480184327,5,6.0,32,bw,99.7798572655,2019_may_15_1107,018,256,20,5,pedro,Experiment_EEG_version,20,
Living_Things,../experiment_stimuli/bw_bc_bl/Living_Things/Marine_creatures/whale_6.jpg,Marine_creatures,0,whale,0,93,93,94,384.967654874,V_nV,1,384.972495384,386.230302355,1,1,0.741864014475,386.992729906,1,1,0.130524953769,5,6.0,32,bw,99.7798572655,2019_may_15_1107,018,256,20,5,pedro,Experiment_EEG_version,20,
Living_Things,../experiment_stimuli/bw_bc_bl/Living_Things/Marine_creatures/manatee_13.jpg,Marine_creatures,0,manatee,0,94,94,52,388.856109404,V_nV,1,388.860926128,390.148838672,1,1,0.571466323454,390.740872031,3,0,0.130505191162,5,8.0,32,bw,99.7798572655,2019_may_15_1107,018,256,20,5,pedro,Experiment_EEG_version,20,
Nonliving_Things,../experiment_stimuli/bw_bc_bl/Nonliving_Things/Furniture/table_20.jpg,Furniture,0,table,0,95,95,81,392.604280574,V_nV,2,392.609139083,393.866917115,0,1,0.651668855047,394.539136307,1,1,0.150548227364,5,7.5,32,bw,99.7798572655,2019_may_15_1107,018,256,20,5,pedro,Experiment_EEG_version,20,
