category,probe_path,subcategory,fixation_duration,label,trials.thisRepN,trials.thisTrialN,trials.thisN,trials.thisIndex,image_onset_time,response_window,correctAns,probe_onset,discrim_resptime,response.corr,response.keys,response.rt,visible_resptime,visible.keys,visible.corr,visible.rt,probeFrames,jitter2,n_square,experiment_color,frameRate,date,session,image_size,premask_dur,probeFrames,participant,expName,postmask_dur,
Nonliving_Things,../experiment_stimuli/bw_bc_bl/Nonliving_Things/Furniture/filling-cabinet_5.jpg,Furniture,0,filling-cabinet,0,0,0,29,3.71826556476,V_nV,2,3.74057173368,5.00094895781,1,2,0.98236695712,6.01417623274,1,1,0.370868666039,5,6.0,32,bw,99.7823276322,2019_may_14_1534,005,256,20,5,pedro,Experiment_EEG_version,20,
Nonliving_Things,../experiment_stimuli/bw_bc_bl/Nonliving_Things/Buildings/castle_11.jpg,Buildings,0,castle,0,1,1,12,8.11782151135,V_nV,2,8.12319750921,9.42057181249,1,2,0.601532734931,10.0426360238,1,1,0.320920907659,5,6.0,32,bw,99.7823276322,2019_may_14_1534,005,256,20,5,pedro,Experiment_EEG_version,20,
Living_Things,../experiment_stimuli/bw_bc_bl/Living_Things/Animals/tapir_14.jpg,Animals,0,tapir,0,2,2,82,12.0964680123,nV_V,2,12.1012895143,13.4292665748,1,2,0.9823625852,14.4321912039,3,0,0.420983482152,5,7.5,32,bw,99.7823276322,2019_may_14_1534,005,256,20,5,pedro,Experiment_EEG_version,20,
Nonliving_Things,../experiment_stimuli/bw_bc_bl/Nonliving_Things/Musical_Inst/piano__15.jpg,Musical_Inst,0,piano,0,3,3,62,16.5862199339,V_nV,2,16.5915818306,17.8889575062,1,2,1.2429362408,19.1524616776,3,0,0.461225007486,5,8.0,32,bw,99.7823276322,2019_may_14_1534,005,256,20,5,pedro,Experiment_EEG_version,20,
Nonliving_Things,../experiment_stimuli/bw_bc_bl/Nonliving_Things/Kitchen_Uten/cup_1.jpg,Kitchen_Uten,0,cup,0,4,4,22,21.3465815216,V_nV,2,21.3521931025,22.6292636138,1,2,0.511345853622,23.1611586956,3,0,0.391068177356,5,7.0,32,bw,99.7823276322,2019_may_14_1534,005,256,20,5,pedro,Experiment_EEG_version,20,
Nonliving_Things,../experiment_stimuli/bw_bc_bl/Nonliving_Things/Musical_Inst/tuba_11.jpg,Musical_Inst,0,tuba,0,5,5,89,25.2851329988,V_nV,2,25.2900087822,26.5377583941,1,2,0.601374210906,27.1697142308,3,0,0.330939738022,5,6.0,32,bw,99.7823276322,2019_may_14_1534,005,256,20,5,pedro,Experiment_EEG_version,20,
Nonliving_Things,../experiment_stimuli/bw_bc_bl/Nonliving_Things/Kitchen_Uten/teapot_3.jpg,Kitchen_Uten,0,teapot,0,6,6,83,29.2337146672,V_nV,2,29.2390636056,30.4663018758,0,1,0.85207550734,31.3389323483,1,1,0.491312268365,5,8.0,32,bw,99.7823276322,2019_may_14_1534,005,256,20,5,pedro,Experiment_EEG_version,20,
Living_Things,../experiment_stimuli/bw_bc_bl/Living_Things/Birds/raven_19.jpg,Birds,0,raven,0,7,7,67,33.5631232725,V_nV,1,33.5679587783,34.8257724451,1,1,1.2529524017,36.0992825413,2,0,0.541412904218,5,6.0,32,bw,99.7823276322,2019_may_14_1534,005,256,20,5,pedro,Experiment_EEG_version,20,
Living_Things,../experiment_stimuli/bw_bc_bl/Living_Things/Animals/cheetah_22.jpg,Animals,0,cheetah,0,8,8,16,38.3735855187,nV_V,2,38.3784904932,39.626203662,1,2,1.67386120826,41.320615805,1,1,0.571485090069,5,8.0,32,bw,99.7823276322,2019_may_14_1534,005,256,20,5,pedro,Experiment_EEG_version,20,
Nonliving_Things,../experiment_stimuli/bw_bc_bl/Nonliving_Things/Musical_Inst/drum_22.jpg,Musical_Inst,0,drum,0,9,9,25,43.6250036939,nV_V,1,43.6298355079,44.8976603622,1,1,1.45339153858,46.3716127267,3,0,0.55144091812,5,6.0,32,bw,99.7823276322,2019_may_14_1534,005,256,20,5,pedro,Experiment_EEG_version,20,
Nonliving_Things,../experiment_stimuli/bw_bc_bl/Nonliving_Things/Vehicles/car_0.jpg,Vehicles,0,car,0,10,10,11,48.6559404588,V_nV,2,48.6609182822,49.9085565084,1,2,1.29311543552,51.2222164316,1,1,0.230720270716,5,6.0,32,bw,99.7823276322,2019_may_14_1534,005,256,20,5,pedro,Experiment_EEG_version,20,
Living_Things,../experiment_stimuli/bw_bc_bl/Living_Things/Animals/cat_21.jpg,Animals,0,cat,0,11,11,13,53.1857756638,nV_V,2,53.1906267293,54.4684741544,1,2,1.70392595057,56.1929590475,2,0,0.611542741593,5,7.5,32,bw,99.7823276322,2019_may_14_1534,005,256,20,5,pedro,Experiment_EEG_version,20,
Living_Things,../experiment_stimuli/bw_bc_bl/Living_Things/Birds/hummingbird_8.jpg,Birds,0,hummingbird,0,12,12,42,58.5374106404,V_nV,1,58.5423181265,59.8100756434,0,2,1.70392719115,61.5345556866,1,1,1.23290354235,5,8.0,32,bw,99.7823276322,2019_may_14_1534,005,256,20,5,pedro,Experiment_EEG_version,20,
Living_Things,../experiment_stimuli/bw_bc_bl/Living_Things/Animals/lioness_10.jpg,Animals,0,lioness,0,13,13,48,64.5003663736,nV_V,2,64.50584784,65.7930811156,0,1,1.39326139615,67.2069063411,1,1,0.230735913559,5,7.5,32,bw,99.7823276322,2019_may_14_1534,005,256,20,5,pedro,Experiment_EEG_version,20,
Living_Things,../experiment_stimuli/bw_bc_bl/Living_Things/Birds/seagull_21.jpg,Birds,0,seagull,0,14,14,74,69.1705275123,nV_V,2,69.1760365383,70.4832755725,1,2,0.631604198657,71.1354447287,2,0,0.621594868659,5,6.5,32,bw,99.7823276322,2019_may_14_1534,005,256,20,5,pedro,Experiment_EEG_version,20,
Living_Things,../experiment_stimuli/bw_bc_bl/Living_Things/Insects/scorpion_12.jpg,Insects,0,scorpion,0,15,15,73,73.48991278,V_nV,1,73.4955774579,74.7926419726,1,1,2.03465374425,76.8478586741,1,1,0.872119348438,5,6.0,32,bw,99.7823276322,2019_may_14_1534,005,256,20,5,pedro,Experiment_EEG_version,20,
Nonliving_Things,../experiment_stimuli/bw_bc_bl/Nonliving_Things/Furniture/chair_20.jpg,Furniture,0,chair,0,16,16,15,79.4528830465,V_nV,2,79.4577955286,80.7756540161,1,2,0.801971604757,81.5981768679,3,0,0.200643276854,5,7.5,32,bw,99.7823276322,2019_may_14_1534,005,256,20,5,pedro,Experiment_EEG_version,20,
Nonliving_Things,../experiment_stimuli/bw_bc_bl/Nonliving_Things/Buildings/cathedral_19.jpg,Buildings,0,cathedral,0,17,17,14,83.5317384395,V_nV,2,83.536567776,84.8344692371,1,2,1.45338377933,86.3084260641,3,0,0.240741153713,5,6.0,32,bw,99.7823276322,2019_may_14_1534,005,256,20,5,pedro,Experiment_EEG_version,20,
Nonliving_Things,../experiment_stimuli/bw_bc_bl/Nonliving_Things/Musical_Inst/trumpet_19.jpg,Musical_Inst,0,trumpet,0,18,18,88,88.2820681068,nV_V,1,88.2884444026,89.554730117,1,1,2.18497738813,91.7602627109,1,1,0.350991131156,5,6.5,32,bw,99.7823276322,2019_may_14_1534,005,256,20,5,pedro,Experiment_EEG_version,20,
Living_Things,../experiment_stimuli/bw_bc_bl/Living_Things/Insects/ladybird_12.jpg,Insects,0,ladybird,0,19,19,45,93.8441469567,nV_V,2,93.8490113758,95.1268391695,1,2,1.14271245775,96.2901211823,2,0,0.902183466766,5,6.0,32,bw,99.7823276322,2019_may_14_1534,005,256,20,5,pedro,Experiment_EEG_version,20,
Living_Things,../experiment_stimuli/bw_bc_bl/Living_Things/Animals/rhino_26.jpg,Animals,0,rhino,0,20,20,68,98.9251935232,V_nV,1,98.9307688379,100.197875556,1,1,1.83421137789,102.052637008,2,0,0.511334872397,5,6.0,32,bw,99.7823276322,2019_may_14_1534,005,256,20,5,pedro,Experiment_EEG_version,20,
Nonliving_Things,../experiment_stimuli/bw_bc_bl/Nonliving_Things/Furniture/lectern_10.jpg,Furniture,0,lectern,0,21,21,47,104.296876262,V_nV,2,104.301729662,105.559533209,1,2,2.14489014656,107.724969425,2,0,0.260787385458,5,6.0,32,bw,99.7823276322,2019_may_14_1534,005,256,20,5,pedro,Experiment_EEG_version,20,
Living_Things,../experiment_stimuli/bw_bc_bl/Living_Things/Birds/penguin_12.jpg,Birds,0,penguin,0,22,22,61,109.718662459,V_nV,1,109.723578956,110.971282689,1,1,0.952300086967,111.944143651,2,0,0.741837552283,5,6.0,32,bw,99.7823276322,2019_may_14_1534,005,256,20,5,pedro,Experiment_EEG_version,20,
Living_Things,../experiment_stimuli/bw_bc_bl/Living_Things/Birds/goose_9.jpg,Birds,0,goose,0,23,23,34,114.41890463,V_nV,1,114.423747699,115.661477514,0,2,1.06253334682,116.744589901,1,1,0.320918512763,5,8.0,32,bw,99.7823276322,2019_may_14_1534,005,256,20,5,pedro,Experiment_EEG_version,20,
Nonliving_Things,../experiment_stimuli/bw_bc_bl/Nonliving_Things/Buildings/church_24.jpg,Buildings,0,church,0,24,24,17,118.798397424,nV_V,1,118.804102466,120.051023995,0,2,1.28285643953,121.354456148,1,1,0.230569965031,5,7.5,32,bw,99.7823276322,2019_may_14_1534,005,256,20,5,pedro,Experiment_EEG_version,20,
Living_Things,../experiment_stimuli/bw_bc_bl/Living_Things/Birds/barn-owl_13.jpg,Birds,0,barn-owl,0,25,25,4,123.318216622,nV_V,2,123.323038665,124.59089953,0,1,3.24728126096,127.868772977,1,1,0.371028934431,5,8.0,32,bw,99.7823276322,2019_may_14_1534,005,256,20,5,pedro,Experiment_EEG_version,20,
Living_Things,../experiment_stimuli/bw_bc_bl/Living_Things/Birds/hen_20.jpg,Birds,0,hen,0,26,26,38,129.97273336,nV_V,2,129.977656271,131.265414024,0,1,0.942271381326,132.238234155,1,1,0.76188878034,5,6.0,32,bw,99.7823276322,2019_may_14_1534,005,256,20,5,pedro,Experiment_EEG_version,20,
Living_Things,../experiment_stimuli/bw_bc_bl/Living_Things/Animals/elephant_7.jpg,Animals,0,elephant,0,27,27,27,134.733033298,V_nV,1,134.739521938,136.035763611,1,1,0.531375792343,136.597705616,2,0,0.701745314465,5,6.0,32,bw,99.7823276322,2019_may_14_1534,005,256,20,5,pedro,Experiment_EEG_version,20,
Nonliving_Things,../experiment_stimuli/bw_bc_bl/Nonliving_Things/Musical_Inst/guitar_8.jpg,Musical_Inst,0,guitar,0,28,28,36,139.03239198,V_nV,2,139.038260622,140.325090178,1,2,1.5335748113,141.87923042,3,0,2.52571538428,5,6.5,32,bw,99.7823276322,2019_may_14_1534,005,256,20,5,pedro,Experiment_EEG_version,20,
Living_Things,../experiment_stimuli/bw_bc_bl/Living_Things/Animals/turtle_6.jpg,Animals,0,turtle,0,29,29,90,146.137857329,nV_V,2,146.142714601,147.410490993,1,2,1.59368651826,149.024735672,2,0,0.801963157661,5,7.0,32,bw,99.7823276322,2019_may_14_1534,005,256,20,5,pedro,Experiment_EEG_version,20,
Living_Things,../experiment_stimuli/bw_bc_bl/Living_Things/Marine_creatures/manatee_12.jpg,Marine_creatures,0,manatee,0,30,30,52,151.559606982,V_nV,1,151.564580376,152.822252899,1,1,2.36536975589,155.208182465,3,0,1.12266033929,5,6.0,32,bw,99.7823276322,2019_may_14_1534,005,256,20,5,pedro,Experiment_EEG_version,20,
Nonliving_Things,../experiment_stimuli/bw_bc_bl/Nonliving_Things/Vehicles/motorbike_13.jpg,Vehicles,0,motorbike,0,31,31,54,158.06374796,V_nV,2,158.069727837,159.306353608,1,2,1.46340641769,160.790327223,2,0,0.52135092445,5,7.5,32,bw,99.7823276322,2019_may_14_1534,005,256,20,5,pedro,Experiment_EEG_version,20,
Nonliving_Things,../experiment_stimuli/bw_bc_bl/Nonliving_Things/Buildings/mill_3.jpg,Buildings,0,mill,0,32,32,53,163.044582394,V_nV,2,163.049587514,164.277161384,1,2,0.852080402023,165.149800357,1,1,0.350988105114,5,6.0,32,bw,99.7823276322,2019_may_14_1534,005,256,20,5,pedro,Experiment_EEG_version,20,
Nonliving_Things,../experiment_stimuli/bw_bc_bl/Nonliving_Things/Buildings/house_11.jpg,Buildings,0,house,0,33,33,41,167.23368034,nV_V,1,167.238568096,168.486304874,0,2,1.29304027115,169.799904569,1,1,0.230728217983,5,6.0,32,bw,99.7823276322,2019_may_14_1534,005,256,20,5,pedro,Experiment_EEG_version,20,
Living_Things,../experiment_stimuli/bw_bc_bl/Living_Things/Animals/cow_17.jpg,Animals,0,cow,0,34,34,20,171.763525913,V_nV,1,171.769361979,173.026175615,0,2,1.30201499979,174.349801693,1,1,0.711773174757,5,6.0,32,bw,99.7823276322,2019_may_14_1534,005,256,20,5,pedro,Experiment_EEG_version,20,
Nonliving_Things,../experiment_stimuli/bw_bc_bl/Nonliving_Things/Furniture/table_16.jpg,Furniture,0,table,0,35,35,81,176.794459655,nV_V,1,176.799390002,178.0771628,1,1,1.36319963483,179.460912802,2,0,0.852073263202,5,7.0,32,bw,99.7823276322,2019_may_14_1534,005,256,20,5,pedro,Experiment_EEG_version,20,
Living_Things,../experiment_stimuli/bw_bc_bl/Living_Things/Birds/pigeon_22.jpg,Birds,0,pigeon,0,36,36,63,182.045880846,V_nV,1,182.051808159,183.318565066,1,1,0.290864537528,183.629959452,1,1,0.481271306518,5,6.5,32,bw,99.7823276322,2019_may_14_1534,005,256,20,5,pedro,Experiment_EEG_version,20,
Nonliving_Things,../experiment_stimuli/bw_bc_bl/Nonliving_Things/Vehicles/van_15.jpg,Vehicles,0,van,0,37,37,91,185.844136283,V_nV,2,185.848983706,187.146883028,0,1,0.801973131078,187.969405211,1,1,0.371047524561,5,7.5,32,bw,99.7823276322,2019_may_14_1534,005,256,20,5,pedro,Experiment_EEG_version,20,
Nonliving_Things,../experiment_stimuli/bw_bc_bl/Nonliving_Things/Kitchen_Uten/small-saucepan_5.jpg,Kitchen_Uten,0,small-saucepan,0,38,38,77,190.073331237,V_nV,2,190.078245423,191.406125281,0,1,0.811986386136,192.238660689,1,1,0.761877742887,5,8.0,32,bw,99.7823276322,2019_may_14_1534,005,256,20,5,pedro,Experiment_EEG_version,20,
Living_Things,../experiment_stimuli/bw_bc_bl/Living_Things/Birds/ostrich_20.jpg,Birds,0,ostrich,0,39,39,56,194.733457351,V_nV,1,194.739467377,196.096319505,1,1,0.711796193034,196.828671197,2,0,0.300869243569,5,6.5,32,bw,99.7823276322,2019_may_14_1534,005,256,20,5,pedro,Experiment_EEG_version,20,
Nonliving_Things,../experiment_stimuli/bw_bc_bl/Nonliving_Things/Furniture/bookcase_20.jpg,Furniture,0,bookcase,0,40,40,8,198.862434308,V_nV,2,198.867276641,200.215283275,1,2,2.1549115369,202.390746348,2,0,0.791952094121,5,6.5,32,bw,99.7823276322,2019_may_14_1534,005,256,20,5,pedro,Experiment_EEG_version,20,
Nonliving_Things,../experiment_stimuli/bw_bc_bl/Nonliving_Things/Buildings/palace_21.jpg,Buildings,0,palace,0,41,41,58,204.915585663,V_nV,2,204.920458123,206.258425574,0,1,1.07255570707,207.351535265,1,1,0.371024126362,5,6.0,32,bw,99.7823276322,2019_may_14_1534,005,256,20,5,pedro,Experiment_EEG_version,20,
Living_Things,../experiment_stimuli/bw_bc_bl/Living_Things/Birds/partridge_22.jpg,Birds,0,partridge,0,42,42,59,209.455463919,V_nV,1,209.460443182,210.818325096,1,1,0.87212405121,211.711015958,2,0,1.13270764257,5,6.5,32,bw,99.7823276322,2019_may_14_1534,005,256,20,5,pedro,Experiment_EEG_version,20,
Living_Things,../experiment_stimuli/bw_bc_bl/Living_Things/Marine_creatures/shark_3.jpg,Marine_creatures,0,shark,0,43,43,75,214.576588829,nV_V,2,214.581469635,215.929440935,0,1,0.902028901153,216.852026184,1,1,1.05251096014,5,6.5,32,bw,99.7823276322,2019_may_14_1534,005,256,20,5,pedro,Experiment_EEG_version,20,
Living_Things,../experiment_stimuli/bw_bc_bl/Living_Things/Birds/pelican_8.jpg,Birds,0,pelican,0,44,44,60,219.637601095,nV_V,2,219.64257805,221.010479749,1,2,2.37538072927,223.406406624,3,0,1.12266517343,5,6.0,32,bw,99.7823276322,2019_may_14_1534,005,256,20,5,pedro,Experiment_EEG_version,20,
Nonliving_Things,../experiment_stimuli/bw_bc_bl/Nonliving_Things/Vehicles/plane_14.jpg,Vehicles,0,plane,0,45,45,64,226.262001773,nV_V,1,226.26697613,227.614850939,1,1,0.631603055808,228.266992784,3,0,0.180654134543,5,7.0,32,bw,99.7823276322,2019_may_14_1534,005,256,20,5,pedro,Experiment_EEG_version,20,
Nonliving_Things,../experiment_stimuli/bw_bc_bl/Nonliving_Things/Furniture/armchair_17.jpg,Furniture,0,armchair,0,46,46,2,230.180518462,nV_V,1,230.185420203,231.50328886,1,1,0.591535772488,232.115394511,3,0,0.381054399884,5,7.0,32,bw,99.7823276322,2019_may_14_1534,005,256,20,5,pedro,Experiment_EEG_version,20,
Nonliving_Things,../experiment_stimuli/bw_bc_bl/Nonliving_Things/Furniture/sofa_25.jpg,Furniture,0,sofa,0,47,47,78,234.229314473,nV_V,1,234.234144287,235.522027535,1,1,1.30306324043,236.845650955,3,0,0.150540197443,5,7.5,32,bw,99.7823276322,2019_may_14_1534,005,256,20,5,pedro,Experiment_EEG_version,20,
Nonliving_Things,../experiment_stimuli/bw_bc_bl/Nonliving_Things/Vehicles/train_19.jpg,Vehicles,0,train,0,48,48,87,238.729093744,V_nV,2,238.733945366,240.001772438,0,1,0.701752291759,240.724074977,1,1,0.350983537268,5,6.0,32,bw,99.7823276322,2019_may_14_1534,005,256,20,5,pedro,Experiment_EEG_version,20,
Nonliving_Things,../experiment_stimuli/bw_bc_bl/Nonliving_Things/Furniture/bedside-table_4.jpg,Furniture,0,bedside-table,0,49,49,6,242.807962433,V_nV,2,242.812912325,244.090658233,1,2,1.01245219941,245.123680431,2,0,0.751875111717,5,6.5,32,bw,99.7823276322,2019_may_14_1534,005,256,20,5,pedro,Experiment_EEG_version,20,
Living_Things,../experiment_stimuli/bw_bc_bl/Living_Things/Animals/horse_15.jpg,Animals,0,horse,0,50,50,40,247.608395966,nV_V,2,247.614534848,248.881066536,1,2,1.11264612176,250.014279736,1,1,0.410960193141,5,6.0,32,bw,99.7823276322,2019_may_14_1534,005,256,20,5,pedro,Experiment_EEG_version,20,
Nonliving_Things,../experiment_stimuli/bw_bc_bl/Nonliving_Things/Buildings/factory_25.jpg,Buildings,0,factory,0,51,51,28,252.158284808,nV_V,1,252.163157208,253.440985803,1,1,1.3030601542,254.764582926,1,1,0.261476653744,5,7.0,32,bw,99.7823276322,2019_may_14_1534,005,256,20,5,pedro,Experiment_EEG_version,20,
Nonliving_Things,../experiment_stimuli/bw_bc_bl/Nonliving_Things/Vehicles/tractor_2.jpg,Vehicles,0,tractor,0,52,52,86,256.758289091,nV_V,1,256.763151288,258.071044129,1,1,2.11481751356,260.206437363,3,0,0.601528306433,5,6.5,32,bw,99.7823276322,2019_may_14_1534,005,256,20,5,pedro,Experiment_EEG_version,20,
Living_Things,../experiment_stimuli/bw_bc_bl/Living_Things/Birds/kiwi_25.jpg,Birds,0,kiwi,0,53,53,44,262.54085484,nV_V,2,262.545771867,263.823558808,0,1,2.20501907845,266.049136727,1,1,0.561441669648,5,6.5,32,bw,99.7823276322,2019_may_14_1534,005,256,20,5,pedro,Experiment_EEG_version,20,
Nonliving_Things,../experiment_stimuli/bw_bc_bl/Nonliving_Things/Kitchen_Uten/pot_0.jpg,Kitchen_Uten,0,pot,0,54,54,66,268.343471659,V_nV,2,268.348348649,269.646209396,1,2,1.10262144939,270.769388765,3,0,0.872117927414,5,6.5,32,bw,99.7823276322,2019_may_14_1534,005,256,20,5,pedro,Experiment_EEG_version,20,
Living_Things,../experiment_stimuli/bw_bc_bl/Living_Things/Animals/lynx_14.jpg,Animals,0,lynx,0,55,55,50,273.374410634,nV_V,2,273.379356296,274.647088141,0,1,1.47343127808,276.141064812,1,1,0.190627131029,5,6.5,32,bw,99.7823276322,2019_may_14_1534,005,256,20,5,pedro,Experiment_EEG_version,20,
Living_Things,../experiment_stimuli/bw_bc_bl/Living_Things/Insects/butterfly_3.jpg,Insects,0,butterfly,0,56,56,10,278.064619181,nV_V,2,278.070705305,279.357318127,1,2,0.89216539578,280.270050916,3,0,0.872115648875,5,6.0,32,bw,99.7823276322,2019_may_14_1534,005,256,20,5,pedro,Experiment_EEG_version,20,
Living_Things,../experiment_stimuli/bw_bc_bl/Living_Things/Birds/goldfinch_3.jpg,Birds,0,goldfinch,0,57,57,33,282.87506007,V_nV,1,282.879948869,284.147729592,0,2,2.52556338254,286.693854229,2,0,0.320919178368,5,7.0,32,bw,99.7823276322,2019_may_14_1534,005,256,20,5,pedro,Experiment_EEG_version,20,
Living_Things,../experiment_stimuli/bw_bc_bl/Living_Things/Marine_creatures/sperm-whale_19.jpg,Marine_creatures,0,sperm-whale,0,58,58,80,288.747825952,nV_V,2,288.752858004,290.01047385,1,2,1.58368796576,291.614714172,3,0,0.571463439788,5,6.0,32,bw,99.7823276322,2019_may_14_1534,005,256,20,5,pedro,Experiment_EEG_version,20,
Living_Things,../experiment_stimuli/bw_bc_bl/Living_Things/Animals/zebra_26.jpg,Animals,0,zebra,0,59,59,95,293.919067633,nV_V,2,293.923947187,295.151647939,1,2,1.97451167688,297.146736024,2,0,0.230567032297,5,6.5,32,bw,99.7823276322,2019_may_14_1534,005,256,20,5,pedro,Experiment_EEG_version,20,
Nonliving_Things,../experiment_stimuli/bw_bc_bl/Nonliving_Things/Tools/axe_24.jpg,Tools,0,axe,0,60,60,3,299.110350729,V_nV,2,299.115376819,300.342930686,0,1,1.38327308814,301.746758149,1,1,0.781942410395,5,6.0,32,bw,99.7823276322,2019_may_14_1534,005,256,20,5,pedro,Experiment_EEG_version,20,
Living_Things,../experiment_stimuli/bw_bc_bl/Living_Things/Birds/sparrow_4.jpg,Birds,0,sparrow,0,61,61,79,304.261548344,V_nV,1,304.269048153,305.504165273,0,2,0.741878702072,306.266610733,1,1,0.170601462945,5,7.5,32,bw,99.7823276322,2019_may_14_1534,005,256,20,5,pedro,Experiment_EEG_version,20,
Living_Things,../experiment_stimuli/bw_bc_bl/Living_Things/Marine_creatures/dolphin_25.jpg,Marine_creatures,0,dolphin,0,62,62,23,308.170048872,nV_V,2,308.174860697,309.42266915,1,2,0.982381990936,310.425606381,2,0,0.210684328573,5,6.5,32,bw,99.7823276322,2019_may_14_1534,005,256,20,5,pedro,Experiment_EEG_version,20,
Nonliving_Things,../experiment_stimuli/bw_bc_bl/Nonliving_Things/Musical_Inst/saxophone_4.jpg,Musical_Inst,0,saxophone,0,63,63,72,312.369171516,V_nV,2,312.37416588,313.611779964,1,2,1.09243730956,314.724753224,1,1,0.160595233843,5,6.0,32,bw,99.7823276322,2019_may_14_1534,005,256,20,5,pedro,Experiment_EEG_version,20,
Living_Things,../experiment_stimuli/bw_bc_bl/Living_Things/Marine_creatures/pomfret_9.jpg,Marine_creatures,0,pomfret,0,64,64,65,316.618410269,V_nV,1,316.623364796,317.87103489,1,1,1.20284197258,319.094441963,1,1,0.180614131561,5,6.0,32,bw,99.7823276322,2019_may_14_1534,005,256,20,5,pedro,Experiment_EEG_version,20,
Nonliving_Things,../experiment_stimuli/bw_bc_bl/Nonliving_Things/Vehicles/ship_9.jpg,Vehicles,0,ship,0,65,65,76,321.007958581,V_nV,2,321.014078095,322.290646376,0,1,0.9122104696,323.233438949,1,1,0.230719244573,5,7.0,32,bw,99.7823276322,2019_may_14_1534,005,256,20,5,pedro,Experiment_EEG_version,20,
Nonliving_Things,../experiment_stimuli/bw_bc_bl/Nonliving_Things/Furniture/Chest-of-drawers_18.jpg,Furniture,0,Chest-of-drawers,0,66,66,0,325.19705909,nV_V,1,325.201766523,326.519841116,0,2,1.0424921115,327.582912452,1,1,0.2708104825,5,8.0,32,bw,99.7823276322,2019_may_14_1534,005,256,20,5,pedro,Experiment_EEG_version,20,
Living_Things,../experiment_stimuli/bw_bc_bl/Living_Things/Animals/armadillo_25.jpg,Animals,0,armadillo,0,67,67,1,329.586611579,V_nV,1,329.591460547,330.919398363,0,2,1.46343427448,332.403409723,1,1,0.170592128299,5,6.0,32,bw,99.7823276322,2019_may_14_1534,005,256,20,5,pedro,Experiment_EEG_version,20,
Living_Things,../experiment_stimuli/bw_bc_bl/Living_Things/Animals/tiger_5.jpg,Animals,0,tiger,0,68,68,84,334.306860715,nV_V,2,334.313017303,335.639661698,0,1,1.57365355315,337.233862134,1,1,0.280831166019,5,6.0,32,bw,99.7823276322,2019_may_14_1534,005,256,20,5,pedro,Experiment_EEG_version,20,
Living_Things,../experiment_stimuli/bw_bc_bl/Living_Things/Animals/giraffe_20.jpg,Animals,0,giraffe,0,69,69,32,339.247600362,nV_V,2,339.253836005,340.61047467,1,2,1.15273292328,341.783757811,3,0,1.83423987735,5,6.0,32,bw,99.7823276322,2019_may_14_1534,005,256,20,5,pedro,Experiment_EEG_version,20,
Nonliving_Things,../experiment_stimuli/bw_bc_bl/Nonliving_Things/Vehicles/bus_16.jpg,Vehicles,0,bus,0,70,70,9,345.3508658,V_nV,2,345.355791172,346.693691899,1,2,1.21270262473,347.926964056,1,1,0.080392044154,5,6.5,32,bw,99.7823276322,2019_may_14_1534,005,256,20,5,pedro,Experiment_EEG_version,20,
Living_Things,../experiment_stimuli/bw_bc_bl/Living_Things/Marine_creatures/killer-whale_23.jpg,Marine_creatures,0,killer-whale,0,71,71,43,349.740410213,V_nV,1,349.745162239,351.083237012,0,2,1.39326013665,352.497047147,1,1,0.170589865127,5,6.5,32,bw,99.7823276322,2019_may_14_1534,005,256,20,5,pedro,Experiment_EEG_version,20,
Nonliving_Things,../experiment_stimuli/bw_bc_bl/Nonliving_Things/Buildings/granary_8.jpg,Buildings,0,granary,0,72,72,35,354.400543514,nV_V,1,354.405368896,355.773428578,1,1,0.892183820135,356.686169006,3,0,0.641635273409,5,6.5,32,bw,99.7823276322,2019_may_14_1534,005,256,20,5,pedro,Experiment_EEG_version,20,
Living_Things,../experiment_stimuli/bw_bc_bl/Living_Things/Insects/dragonfly_9.jpg,Insects,0,dragonfly,0,73,73,24,359.060668353,V_nV,1,359.065582876,360.393485103,1,1,0.871972793771,361.285996396,2,0,1.6037068445,5,6.0,32,bw,99.7823276322,2019_may_14_1534,005,256,20,5,pedro,Experiment_EEG_version,20,
Nonliving_Things,../experiment_stimuli/bw_bc_bl/Nonliving_Things/Kitchen_Uten/fondue_20.jpg,Kitchen_Uten,0,fondue,0,74,74,30,364.622761718,V_nV,2,364.627557416,365.945547773,1,2,1.94428965106,367.910397987,3,0,1.08257894695,5,6.0,32,bw,99.7823276322,2019_may_14_1534,005,256,20,5,pedro,Experiment_EEG_version,20,
Nonliving_Things,../experiment_stimuli/bw_bc_bl/Nonliving_Things/Vehicles/boat_16.jpg,Vehicles,0,boat,0,75,75,7,370.726025453,nV_V,1,370.730826143,372.018747582,1,1,1.71397257358,373.753276519,2,0,0.822008671181,5,8.0,32,bw,99.7823276322,2019_may_14_1534,005,256,20,5,pedro,Experiment_EEG_version,20,
Living_Things,../experiment_stimuli/bw_bc_bl/Living_Things/Marine_creatures/lobster_3.jpg,Marine_creatures,0,lobster,0,76,76,49,376.308166955,V_nV,1,376.315941344,377.590857262,0,2,1.16277120844,378.78421413,1,1,0.62157002301,5,6.5,32,bw,99.7823276322,2019_may_14_1534,005,256,20,5,pedro,Experiment_EEG_version,20,
Nonliving_Things,../experiment_stimuli/bw_bc_bl/Nonliving_Things/Musical_Inst/violin_13.jpg,Musical_Inst,0,violin,0,77,77,92,381.138662155,nV_V,1,381.143599911,382.431377303,1,1,1.41330005624,383.865223915,1,1,0.631591661426,5,6.0,32,bw,99.7823276322,2019_may_14_1534,005,256,20,5,pedro,Experiment_EEG_version,20,
Living_Things,../experiment_stimuli/bw_bc_bl/Living_Things/Birds/duck_9.jpg,Birds,0,duck,0,78,78,26,386.229736123,V_nV,1,386.234625071,387.552509919,1,1,0.812010859489,388.385074928,3,0,1.50348230597,5,6.0,32,bw,99.7823276322,2019_may_14_1534,005,256,20,5,pedro,Experiment_EEG_version,20,
Living_Things,../experiment_stimuli/bw_bc_bl/Living_Things/Birds/magpie_18.jpg,Birds,0,magpie,0,79,79,51,391.621451638,V_nV,1,391.62626087,392.904145013,1,1,1.82421525038,394.748924104,2,0,0.811990254326,5,6.5,32,bw,99.7823276322,2019_may_14_1534,005,256,20,5,pedro,Experiment_EEG_version,20,
Nonliving_Things,../experiment_stimuli/bw_bc_bl/Nonliving_Things/Furniture/wardrobe_2.jpg,Furniture,0,wardrobe,0,80,80,93,397.293785894,nV_V,1,397.298501605,398.566462186,1,1,1.10262461472,399.689627364,2,0,1.49349656218,5,6.0,32,bw,99.7823276322,2019_may_14_1534,005,256,20,5,pedro,Experiment_EEG_version,20,
Nonliving_Things,../experiment_stimuli/bw_bc_bl/Nonliving_Things/Kitchen_Uten/frying-pan_11.jpg,Kitchen_Uten,0,frying-pan,0,81,81,31,402.916000485,nV_V,1,402.920822337,404.178652003,1,1,0.671693447977,404.870891668,2,0,0.932248160068,5,6.0,32,bw,99.7823276322,2019_may_14_1534,005,256,20,5,pedro,Experiment_EEG_version,20,
Living_Things,../experiment_stimuli/bw_bc_bl/Living_Things/Marine_creatures/crab_15.jpg,Marine_creatures,0,crab,0,82,82,21,407.53608007,V_nV,1,407.541064581,408.798694446,0,2,0.65164667886,409.470905981,2,0,0.340808344714,5,6.5,32,bw,99.7823276322,2019_may_14_1534,005,256,20,5,pedro,Experiment_EEG_version,20,
Nonliving_Things,../experiment_stimuli/bw_bc_bl/Nonliving_Things/Kitchen_Uten/saucepan_12.jpg,Kitchen_Uten,0,saucepan,0,83,83,71,411.544755671,V_nV,2,411.549483862,412.787380311,0,1,0.882152076636,413.690066033,2,0,0.371028163936,5,6.0,32,bw,99.7823276322,2019_may_14_1534,005,256,20,5,pedro,Experiment_EEG_version,20,
Nonliving_Things,../experiment_stimuli/bw_bc_bl/Nonliving_Things/Furniture/couch_21.jpg,Furniture,0,couch,0,84,84,19,415.793992278,V_nV,2,415.798714744,417.026584411,0,1,1.38306739932,418.440270232,3,0,1.55362140393,5,6.0,32,bw,99.7823276322,2019_may_14_1534,005,256,20,5,pedro,Experiment_EEG_version,20,
Living_Things,../experiment_stimuli/bw_bc_bl/Living_Things/Marine_creatures/narwhal_7.jpg,Marine_creatures,0,narwhal,0,85,85,55,421.726893287,V_nV,1,421.731720778,422.959491499,1,1,1.98454334523,424.964571915,2,0,0.872120777029,5,6.5,32,bw,99.7823276322,2019_may_14_1534,005,256,20,5,pedro,Experiment_EEG_version,20,
Living_Things,../experiment_stimuli/bw_bc_bl/Living_Things/Animals/hippopotamus_6.jpg,Animals,0,hippopotamus,0,86,86,39,427.569599581,nV_V,2,427.574386486,428.802179368,0,1,1.31308574346,430.135829836,1,1,0.33094158012,5,6.0,32,bw,99.7823276322,2019_may_14_1534,005,256,20,5,pedro,Experiment_EEG_version,20,
Nonliving_Things,../experiment_stimuli/bw_bc_bl/Nonliving_Things/Furniture/rocking-chair_26.jpg,Furniture,0,rocking-chair,0,87,87,69,432.199659805,nV_V,1,432.204620531,433.442273565,1,1,0.771913926408,434.23476649,1,1,0.57145837578,5,6.5,32,bw,99.7823276322,2019_may_14_1534,005,256,20,5,pedro,Experiment_EEG_version,20,
Nonliving_Things,../experiment_stimuli/bw_bc_bl/Nonliving_Things/Furniture/lamp_25.jpg,Furniture,0,lamp,0,88,88,46,436.53909762,nV_V,1,436.543841116,437.791717869,1,1,0.531382536225,438.343666659,1,1,0.320927355147,5,6.5,32,bw,99.7823276322,2019_may_14_1534,005,256,20,5,pedro,Experiment_EEG_version,20,
Nonliving_Things,../experiment_stimuli/bw_bc_bl/Nonliving_Things/Tools/hammer_20.jpg,Tools,0,hammer,0,89,89,37,440.397479302,nV_V,1,440.402218775,441.680173022,1,1,1.36320347682,443.063940201,2,0,0.270809982321,5,6.5,32,bw,99.7823276322,2019_may_14_1534,005,256,20,5,pedro,Experiment_EEG_version,20,
Nonliving_Things,../experiment_stimuli/bw_bc_bl/Nonliving_Things/Kitchen_Uten/coking-pot_4.jpg,Kitchen_Uten,0,coking-pot,0,90,90,18,445.0676317,nV_V,1,445.072483191,446.34030391,1,1,1.06253431673,447.423400804,2,0,0.882139005524,5,6.5,32,bw,99.7823276322,2019_may_14_1534,005,256,20,5,pedro,Experiment_EEG_version,20,
Living_Things,../experiment_stimuli/bw_bc_bl/Living_Things/Birds/rooster_6.jpg,Birds,0,rooster,0,91,91,70,450.038437097,nV_V,2,450.043217051,451.301086608,0,1,1.17279321491,452.49444457,1,1,0.260787084699,5,6.0,32,bw,99.7823276322,2019_may_14_1534,005,256,20,5,pedro,Experiment_EEG_version,20,
Living_Things,../experiment_stimuli/bw_bc_bl/Living_Things/Marine_creatures/whale_24.jpg,Marine_creatures,0,whale,0,92,92,94,454.488111135,nV_V,2,454.492835442,455.76078246,0,1,0.811993382114,456.59333527,1,1,0.180612097553,5,8.0,32,bw,99.7823276322,2019_may_14_1534,005,256,20,5,pedro,Experiment_EEG_version,20,
Nonliving_Things,../experiment_stimuli/bw_bc_bl/Nonliving_Things/Furniture/bed_16.jpg,Furniture,0,bed,0,93,93,5,458.506855268,V_nV,2,458.511717815,459.809584276,1,2,1.15273361892,460.982878578,3,0,0.381049478718,5,6.0,32,bw,99.7823276322,2019_may_14_1534,005,256,20,5,pedro,Experiment_EEG_version,20,
Living_Things,../experiment_stimuli/bw_bc_bl/Living_Things/Birds/owl_13.jpg,Birds,0,owl,0,94,94,57,463.096856671,nV_V,2,463.101790476,464.37952476,1,2,1.03252440423,465.43260034,1,1,0.18063556694,5,6.0,32,bw,99.7823276322,2019_may_14_1534,005,256,20,5,pedro,Experiment_EEG_version,20,
Living_Things,../experiment_stimuli/bw_bc_bl/Living_Things/Birds/toucan_26.jpg,Birds,0,toucan,0,95,95,85,467.346065794,V_nV,1,467.350875363,468.638778656,1,1,1.05251670833,469.711850073,1,1,0.150539246504,5,6.5,32,bw,99.7823276322,2019_may_14_1534,005,256,20,5,pedro,Experiment_EEG_version,20,
