category,probe_path,subcategory,fixation_duration,label,trials.thisRepN,trials.thisTrialN,trials.thisN,trials.thisIndex,image_onset_time,response_window,correctAns,probe_onset,discrim_resptime,response.corr,response.keys,response.rt,visible_resptime,visible.keys,visible.corr,visible.rt,probeFrames,jitter2,n_square,experiment_color,frameRate,date,session,image_size,premask_dur,probeFrames,participant,expName,postmask_dur,
Living_Things,../experiment_stimuli/bw_bc_bl/Living_Things/Birds/owl_12.jpg,Birds,0,owl,0,0,0,57,3.72343425726,V_nV,1,3.74518126197,5.00612472178,1,1,0.912215082441,5.94918560673,1,1,3.64815280947,5,7.0,32,bw,99.7821515087,2019_may_14_1553,007,256,20,5,pedro,Experiment_EEG_version,20,
Nonliving_Things,../experiment_stimuli/bw_bc_bl/Nonliving_Things/Tools/hammer_25.jpg,Tools,0,hammer,0,1,1,37,11.3299611849,nV_V,1,11.3348333221,12.6126538864,1,1,1.11265258392,13.7458584317,1,1,0.150550588267,5,7.5,32,bw,99.7821515087,2019_may_14_1553,007,256,20,5,pedro,Experiment_EEG_version,20,
Living_Things,../experiment_stimuli/bw_bc_bl/Living_Things/Marine_creatures/shark_17.jpg,Marine_creatures,0,shark,0,2,2,75,15.6293050067,nV_V,2,15.6342057937,16.9320431651,1,2,0.74184351851,17.6944264647,1,1,0.150552498002,5,6.0,32,bw,99.7821515087,2019_may_14_1553,007,256,20,5,pedro,Experiment_EEG_version,20,
Nonliving_Things,../experiment_stimuli/bw_bc_bl/Nonliving_Things/Vehicles/van_7.jpg,Vehicles,0,van,0,3,3,91,19.5779122837,nV_V,1,19.5838874914,20.9006677008,1,1,0.80211257661,21.7233392647,3,0,0.160576350812,5,6.5,32,bw,99.7821515087,2019_may_14_1553,007,256,20,5,pedro,Experiment_EEG_version,20,
Living_Things,../experiment_stimuli/bw_bc_bl/Living_Things/Marine_creatures/manatee_22.jpg,Marine_creatures,0,manatee,0,4,4,52,23.6166719198,nV_V,2,23.6215502298,24.9194058041,1,2,0.63160384167,25.5715471637,3,0,0.170602417435,5,6.5,32,bw,99.7821515087,2019_may_14_1553,007,256,20,5,pedro,Experiment_EEG_version,20,
Living_Things,../experiment_stimuli/bw_bc_bl/Living_Things/Animals/lioness_20.jpg,Animals,0,lioness,0,5,5,48,27.4750508124,nV_V,2,27.4799187505,28.7577424387,1,2,0.731815617008,29.5201345237,2,0,0.140532878169,5,6.0,32,bw,99.7821515087,2019_may_14_1553,007,256,20,5,pedro,Experiment_EEG_version,20,
Living_Things,../experiment_stimuli/bw_bc_bl/Living_Things/Birds/pelican_1.jpg,Birds,0,pelican,0,6,6,60,31.3935713362,nV_V,2,31.3984023312,32.6662475006,1,2,1.43334235204,34.1201483176,2,0,0.210704820522,5,6.5,32,bw,99.7821515087,2019_may_14_1553,007,256,20,5,pedro,Experiment_EEG_version,20,
Nonliving_Things,../experiment_stimuli/bw_bc_bl/Nonliving_Things/Buildings/factory_17.jpg,Buildings,0,factory,0,7,7,28,36.063720212,nV_V,1,36.0686278449,37.3263700914,1,1,0.661673143972,38.0085994597,1,1,0.651653877867,5,6.0,32,bw,99.7821515087,2019_may_14_1553,007,256,20,5,pedro,Experiment_EEG_version,20,
Nonliving_Things,../experiment_stimuli/bw_bc_bl/Nonliving_Things/Buildings/castle_20.jpg,Buildings,0,castle,0,8,8,12,40.393134742,V_nV,2,40.3979385494,41.6858487548,1,2,0.992384347541,42.6987676052,1,1,0.120475402451,5,7.5,32,bw,99.7821515087,2019_may_14_1553,007,256,20,5,pedro,Experiment_EEG_version,20,
Nonliving_Things,../experiment_stimuli/bw_bc_bl/Nonliving_Things/Musical_Inst/tuba_5.jpg,Musical_Inst,0,tuba,0,9,9,89,44.5521728661,nV_V,1,44.5577337643,45.8749520687,1,1,1.15273423545,47.0482314535,3,0,0.461068610894,5,6.0,32,bw,99.7821515087,2019_may_14_1553,007,256,20,5,pedro,Experiment_EEG_version,20,
Nonliving_Things,../experiment_stimuli/bw_bc_bl/Nonliving_Things/Vehicles/tractor_3.jpg,Vehicles,0,tractor,0,10,10,86,49.2423662933,nV_V,1,49.2479386121,50.535078242,1,1,0.982360160269,51.5379765932,1,1,0.170591560425,5,6.0,32,bw,99.7821515087,2019_may_14_1553,007,256,20,5,pedro,Experiment_EEG_version,20,
Living_Things,../experiment_stimuli/bw_bc_bl/Living_Things/Animals/armadillo_22.jpg,Animals,0,armadillo,0,11,11,1,53.4414925089,V_nV,1,53.4470626923,54.7442297916,1,1,0.761885682587,55.5266615594,3,0,0.180613228993,5,6.5,32,bw,99.7821515087,2019_may_14_1553,007,256,20,5,pedro,Experiment_EEG_version,20,
Living_Things,../experiment_stimuli/bw_bc_bl/Living_Things/Animals/turtle_2.jpg,Animals,0,turtle,0,12,12,90,57.4401884932,V_nV,1,57.4450034582,58.7128495374,0,2,1.85425522976,60.5876920477,1,1,0.210702805954,5,6.5,32,bw,99.7821515087,2019_may_14_1553,007,256,20,5,pedro,Experiment_EEG_version,20,
Nonliving_Things,../experiment_stimuli/bw_bc_bl/Nonliving_Things/Kitchen_Uten/teapot_20.jpg,Kitchen_Uten,0,teapot,0,13,13,83,62.5312517769,nV_V,1,62.5361141888,63.8139457,1,1,0.801967379288,64.6364761496,1,1,0.350990680046,5,6.5,32,bw,99.7821515087,2019_may_14_1553,007,256,20,5,pedro,Experiment_EEG_version,20,
Nonliving_Things,../experiment_stimuli/bw_bc_bl/Nonliving_Things/Vehicles/train_26.jpg,Vehicles,0,train,0,14,14,87,66.7203602111,V_nV,2,66.7251792251,68.0130651562,1,2,1.393254667,69.4268788822,1,1,0.561468714732,5,6.5,32,bw,99.7821515087,2019_may_14_1553,007,256,20,5,pedro,Experiment_EEG_version,20,
Nonliving_Things,../experiment_stimuli/bw_bc_bl/Nonliving_Things/Furniture/wardrobe_4.jpg,Furniture,0,wardrobe,0,15,15,93,71.7212234408,V_nV,2,71.7259595348,73.0239558928,1,2,0.731813947845,73.7763295237,3,0,0.150569787424,5,6.0,32,bw,99.7821515087,2019_may_14_1553,007,256,20,5,pedro,Experiment_EEG_version,20,
Nonliving_Things,../experiment_stimuli/bw_bc_bl/Nonliving_Things/Tools/axe_17.jpg,Tools,0,axe,0,16,16,3,75.6597850536,V_nV,2,75.6654980434,76.9324605823,1,2,0.771900497668,77.7249082559,1,1,0.150554415246,5,6.5,32,bw,99.7821515087,2019_may_14_1553,007,256,20,5,pedro,Experiment_EEG_version,20,
Nonliving_Things,../experiment_stimuli/bw_bc_bl/Nonliving_Things/Furniture/bedside-table_14.jpg,Furniture,0,bedside-table,0,17,17,6,79.6083742707,V_nV,2,79.6133348012,80.9111027375,1,2,1.8241941419,82.7558488292,1,1,0.451197019371,5,7.5,32,bw,99.7821515087,2019_may_14_1553,007,256,20,5,pedro,Experiment_EEG_version,20,
Living_Things,../experiment_stimuli/bw_bc_bl/Living_Things/Animals/tiger_1.jpg,Animals,0,tiger,0,18,18,84,84.9399557489,nV_V,2,84.9448195629,86.2527102641,1,2,0.0503406925709,86.3236054102,2,0,2.32512407663,5,6.0,32,bw,99.7821515087,2019_may_14_1553,007,256,20,5,pedro,Experiment_EEG_version,20,
Nonliving_Things,../experiment_stimuli/bw_bc_bl/Nonliving_Things/Furniture/filling-cabinet_7.jpg,Furniture,0,filling-cabinet,0,19,19,29,90.3817838022,V_nV,2,90.3865244977,91.6845262918,1,2,1.36319119134,93.06826826,3,0,0.391062865558,5,6.5,32,bw,99.7821515087,2019_may_14_1553,007,256,20,5,pedro,Experiment_EEG_version,20,
Living_Things,../experiment_stimuli/bw_bc_bl/Living_Things/Animals/horse_18.jpg,Animals,0,horse,0,20,20,40,95.1922438189,V_nV,1,95.1972581796,96.4749329,1,1,1.41331149609,97.9088004249,3,0,0.551421493758,5,6.5,32,bw,99.7821515087,2019_may_14_1553,007,256,20,5,pedro,Experiment_EEG_version,20,
Nonliving_Things,../experiment_stimuli/bw_bc_bl/Nonliving_Things/Kitchen_Uten/fondue_19.jpg,Kitchen_Uten,0,fondue,0,21,21,30,100.193124361,V_nV,2,100.199564328,101.45575995,0,1,0.832033760729,102.308345056,1,1,0.370876861387,5,6.0,32,bw,99.7821515087,2019_may_14_1553,007,256,20,5,pedro,Experiment_EEG_version,20,
Nonliving_Things,../experiment_stimuli/bw_bc_bl/Nonliving_Things/Vehicles/bus_8.jpg,Vehicles,0,bus,0,22,22,9,104.41228415,V_nV,2,104.418013215,105.704992659,0,1,1.64379892056,107.369348819,2,0,1.44338764786,5,6.0,32,bw,99.7821515087,2019_may_14_1553,007,256,20,5,pedro,Experiment_EEG_version,20,
Living_Things,../experiment_stimuli/bw_bc_bl/Living_Things/Insects/scorpion_26.jpg,Insects,0,scorpion,0,23,23,73,110.545632206,V_nV,1,110.550620635,111.828307035,1,1,2.37538749969,114.224241267,1,1,1.40327366238,5,6.5,32,bw,99.7821515087,2019_may_14_1553,007,256,20,5,pedro,Experiment_EEG_version,20,
Nonliving_Things,../experiment_stimuli/bw_bc_bl/Nonliving_Things/Vehicles/ship_19.jpg,Vehicles,0,ship,0,24,24,76,117.360434085,nV_V,1,117.365217742,118.65314182,1,1,2.23507830605,120.908796729,2,0,0.591531765414,5,6.5,32,bw,99.7821515087,2019_may_14_1553,007,256,20,5,pedro,Experiment_EEG_version,20,
Nonliving_Things,../experiment_stimuli/bw_bc_bl/Nonliving_Things/Kitchen_Uten/cup_3.jpg,Kitchen_Uten,0,cup,0,25,25,22,123.233191486,nV_V,1,123.238746384,124.515881258,1,1,1.00240690715,125.538854119,3,0,0.170591323753,5,6.0,32,bw,99.7821515087,2019_may_14_1553,007,256,20,5,pedro,Experiment_EEG_version,20,
Nonliving_Things,../experiment_stimuli/bw_bc_bl/Nonliving_Things/Vehicles/plane_6.jpg,Vehicles,0,plane,0,26,26,64,127.44234067,V_nV,2,127.448938621,128.704988283,1,2,1.95447403152,130.690043019,1,1,1.23290363979,5,6.0,32,bw,99.7821515087,2019_may_14_1553,007,256,20,5,pedro,Experiment_EEG_version,20,
Nonliving_Things,../experiment_stimuli/bw_bc_bl/Nonliving_Things/Musical_Inst/trumpet_12.jpg,Musical_Inst,0,trumpet,0,27,27,88,133.655860864,V_nV,2,133.660767501,134.92851957,0,1,0.912242221006,135.86132409,2,0,0.451198049414,5,6.0,32,bw,99.7821515087,2019_may_14_1553,007,256,20,5,pedro,Experiment_EEG_version,20,
Living_Things,../experiment_stimuli/bw_bc_bl/Living_Things/Marine_creatures/killer-whale_10.jpg,Marine_creatures,0,killer-whale,0,28,28,43,138.045395634,V_nV,1,138.050270053,139.308038882,0,2,1.10262456571,140.431232146,1,1,0.16057338455,5,6.0,32,bw,99.7821515087,2019_may_14_1553,007,256,20,5,pedro,Experiment_EEG_version,20,
Living_Things,../experiment_stimuli/bw_bc_bl/Living_Things/Insects/butterfly_12.jpg,Insects,0,butterfly,0,29,29,10,142.324688901,nV_V,2,142.329480276,143.597367208,1,2,2.30524221848,145.92314334,3,0,0.761877874669,5,6.5,32,bw,99.7821515087,2019_may_14_1553,007,256,20,5,pedro,Experiment_EEG_version,20,
Living_Things,../experiment_stimuli/bw_bc_bl/Living_Things/Birds/goldfinch_4.jpg,Birds,0,goldfinch,0,30,30,33,148.417961095,V_nV,1,148.423847646,149.660539028,1,1,0.50116580748,150.182281962,1,1,0.300901780836,5,8.0,32,bw,99.7821515087,2019_may_14_1553,007,256,20,5,pedro,Experiment_EEG_version,20,
Living_Things,../experiment_stimuli/bw_bc_bl/Living_Things/Animals/cat_17.jpg,Animals,0,cat,0,31,31,13,152.216196883,nV_V,2,152.222002405,153.488860844,0,1,0.781921617338,154.291359234,1,1,0.150550456834,5,6.5,32,bw,99.7821515087,2019_may_14_1553,007,256,20,5,pedro,Experiment_EEG_version,20,
Living_Things,../experiment_stimuli/bw_bc_bl/Living_Things/Birds/sparrow_15.jpg,Birds,0,sparrow,0,32,32,79,156.174804505,nV_V,2,156.179870282,157.457486729,1,2,0.952293850482,158.430338364,2,0,0.200504312874,5,6.0,32,bw,99.7821515087,2019_may_14_1553,007,256,20,5,pedro,Experiment_EEG_version,20,
Living_Things,../experiment_stimuli/bw_bc_bl/Living_Things/Insects/dragonfly_24.jpg,Insects,0,dragonfly,0,33,33,24,160.363905586,V_nV,1,160.369756645,161.636576217,1,1,0.862091018003,162.519217651,3,0,0.120470541471,5,7.0,32,bw,99.7821515087,2019_may_14_1553,007,256,20,5,pedro,Experiment_EEG_version,20,
Nonliving_Things,../experiment_stimuli/bw_bc_bl/Nonliving_Things/Vehicles/motorbike_0.jpg,Vehicles,0,motorbike,0,34,34,54,164.372621998,nV_V,1,164.377672889,165.625243988,0,2,1.14270968339,166.788533361,2,0,0.771904802299,5,6.5,32,bw,99.7821515087,2019_may_14_1553,007,256,20,5,pedro,Experiment_EEG_version,20,
Nonliving_Things,../experiment_stimuli/bw_bc_bl/Nonliving_Things/Kitchen_Uten/saucepan_11.jpg,Kitchen_Uten,0,saucepan,0,35,35,71,169.293319418,nV_V,1,169.298235201,170.535919121,1,1,1.12268077116,171.679149753,1,1,0.170438205649,5,7.0,32,bw,99.7821515087,2019_may_14_1553,007,256,20,5,pedro,Experiment_EEG_version,20,
Living_Things,../experiment_stimuli/bw_bc_bl/Living_Things/Birds/raven_1.jpg,Birds,0,raven,0,36,36,67,173.582642345,V_nV,1,173.58943697,174.835264477,0,2,1.45340799307,176.319260107,3,0,0.260789069638,5,6.5,32,bw,99.7821515087,2019_may_14_1553,007,256,20,5,pedro,Experiment_EEG_version,20,
Living_Things,../experiment_stimuli/bw_bc_bl/Living_Things/Animals/elephant_13.jpg,Animals,0,elephant,0,37,37,27,178.312921029,V_nV,1,178.317712769,179.555527552,1,1,0.822014032048,180.398104102,1,1,0.180611240445,5,7.5,32,bw,99.7821515087,2019_may_14_1553,007,256,20,5,pedro,Experiment_EEG_version,20,
Nonliving_Things,../experiment_stimuli/bw_bc_bl/Nonliving_Things/Musical_Inst/guitar_18.jpg,Musical_Inst,0,guitar,0,38,38,36,182.311615348,nV_V,1,182.317925442,183.564240514,0,2,1.2028433184,184.78763988,1,1,0.150572726852,5,6.0,32,bw,99.7821515087,2019_may_14_1553,007,256,20,5,pedro,Experiment_EEG_version,20,
Living_Things,../experiment_stimuli/bw_bc_bl/Living_Things/Animals/giraffe_8.jpg,Animals,0,giraffe,0,39,39,32,186.67116042,V_nV,1,186.678091242,187.933740466,1,1,1.032503856,188.9867904,1,1,0.190480380843,5,6.0,32,bw,99.7821515087,2019_may_14_1553,007,256,20,5,pedro,Experiment_EEG_version,20,
Living_Things,../experiment_stimuli/bw_bc_bl/Living_Things/Marine_creatures/lobster_7.jpg,Marine_creatures,0,lobster,0,40,40,49,190.910302596,V_nV,1,190.915251638,192.203017252,0,2,1.65382442391,193.877396994,2,0,0.200653543812,5,6.5,32,bw,99.7821515087,2019_may_14_1553,007,256,20,5,pedro,Experiment_EEG_version,20,
Living_Things,../experiment_stimuli/bw_bc_bl/Living_Things/Birds/goose_5.jpg,Birds,0,goose,0,41,41,34,195.810968329,V_nV,1,195.815827289,197.093651575,0,2,1.96450294805,199.078719894,2,0,0.220703256316,5,6.0,32,bw,99.7821515087,2019_may_14_1553,007,256,20,5,pedro,Experiment_EEG_version,20,
Nonliving_Things,../experiment_stimuli/bw_bc_bl/Nonliving_Things/Kitchen_Uten/small-saucepan_1.jpg,Kitchen_Uten,0,small-saucepan,0,42,42,77,201.032310047,V_nV,2,201.039313789,202.304977716,0,1,1.05251705059,203.37806011,2,0,0.170590011578,5,7.0,32,bw,99.7821515087,2019_may_14_1553,007,256,20,5,pedro,Experiment_EEG_version,20,
Nonliving_Things,../experiment_stimuli/bw_bc_bl/Nonliving_Things/Furniture/couch_3.jpg,Furniture,0,couch,0,43,43,19,205.281547677,nV_V,1,205.28661339,206.544187312,0,2,0.972334014543,207.537071724,2,0,0.761878618971,5,6.0,32,bw,99.7821515087,2019_may_14_1553,007,256,20,5,pedro,Experiment_EEG_version,20,
Nonliving_Things,../experiment_stimuli/bw_bc_bl/Nonliving_Things/Musical_Inst/saxophone_9.jpg,Musical_Inst,0,saxophone,0,44,44,72,210.031868431,nV_V,1,210.036917719,211.284498074,1,1,0.952301042213,212.257359092,2,0,0.591360079707,5,6.0,32,bw,99.7821515087,2019_may_14_1553,007,256,20,5,pedro,Experiment_EEG_version,20,
Living_Things,../experiment_stimuli/bw_bc_bl/Living_Things/Marine_creatures/pomfret_0.jpg,Marine_creatures,0,pomfret,0,45,45,65,214.581755514,V_nV,1,214.586698236,215.824363173,0,2,0.832070496981,216.677000473,2,0,0.180612071417,5,6.5,32,bw,99.7821515087,2019_may_14_1553,007,256,20,5,pedro,Experiment_EEG_version,20,
Living_Things,../experiment_stimuli/bw_bc_bl/Living_Things/Marine_creatures/sperm-whale_12.jpg,Marine_creatures,0,sperm-whale,0,46,46,80,218.590472753,nV_V,2,218.596346556,219.823061063,0,1,0.751854893926,220.595478478,1,1,0.17058375245,5,6.0,32,bw,99.7821515087,2019_may_14_1553,007,256,20,5,pedro,Experiment_EEG_version,20,
Nonliving_Things,../experiment_stimuli/bw_bc_bl/Nonliving_Things/Furniture/rocking-chair_11.jpg,Furniture,0,rocking-chair,0,47,47,69,222.498984071,V_nV,2,222.50397365,223.751598011,1,2,0.842055323999,224.624239491,2,0,0.160571478773,5,6.0,32,bw,99.7821515087,2019_may_14_1553,007,256,20,5,pedro,Experiment_EEG_version,20,
Living_Things,../experiment_stimuli/bw_bc_bl/Living_Things/Birds/hummingbird_3.jpg,Birds,0,hummingbird,0,48,48,42,226.517709088,V_nV,1,226.522651044,227.760308457,1,1,0.581493089267,228.36236297,1,1,0.310893615184,5,8.0,32,bw,99.7821515087,2019_may_14_1553,007,256,20,5,pedro,Experiment_EEG_version,20,
Living_Things,../experiment_stimuli/bw_bc_bl/Living_Things/Birds/toucan_23.jpg,Birds,0,toucan,0,49,49,85,230.406160162,nV_V,2,230.411205414,231.658787054,0,1,1.66384571651,233.343180126,1,1,0.230714252219,5,6.0,32,bw,99.7821515087,2019_may_14_1553,007,256,20,5,pedro,Experiment_EEG_version,20,
Living_Things,../experiment_stimuli/bw_bc_bl/Living_Things/Birds/ostrich_9.jpg,Birds,0,ostrich,0,50,50,56,235.306823327,V_nV,1,235.311725783,236.589503326,1,1,1.00240536977,237.612470848,1,1,0.180611420888,5,7.0,32,bw,99.7821515087,2019_may_14_1553,007,256,20,5,pedro,Experiment_EEG_version,20,
Nonliving_Things,../experiment_stimuli/bw_bc_bl/Nonliving_Things/Buildings/house_14.jpg,Buildings,0,house,0,51,51,41,239.526011526,V_nV,2,239.530786063,240.838756218,1,2,0.992226722126,241.851541153,1,1,0.511345879757,5,7.5,32,bw,99.7821515087,2019_may_14_1553,007,256,20,5,pedro,Experiment_EEG_version,20,
Nonliving_Things,../experiment_stimuli/bw_bc_bl/Nonliving_Things/Kitchen_Uten/frying-pan_7.jpg,Kitchen_Uten,0,frying-pan,0,52,52,31,244.095919236,V_nV,2,244.101907849,245.43873979,1,2,0.842060008086,246.301367139,3,0,0.401099507348,5,6.5,32,bw,99.7821515087,2019_may_14_1553,007,256,20,5,pedro,Experiment_EEG_version,20,
Living_Things,../experiment_stimuli/bw_bc_bl/Living_Things/Animals/zebra_5.jpg,Animals,0,zebra,0,53,53,95,248.435355562,V_nV,1,248.440242166,249.758130735,0,2,1.69391554507,251.472608771,1,1,0.631608536933,5,7.5,32,bw,99.7821515087,2019_may_14_1553,007,256,20,5,pedro,Experiment_EEG_version,20,
Nonliving_Things,../experiment_stimuli/bw_bc_bl/Nonliving_Things/Musical_Inst/violin_4.jpg,Musical_Inst,0,violin,0,54,54,92,253.837102453,V_nV,2,253.84202221,255.169897831,0,1,0.80180838157,255.992263178,1,1,0.711770738708,5,6.5,32,bw,99.7821515087,2019_may_14_1553,007,256,20,5,pedro,Experiment_EEG_version,20,
Living_Things,../experiment_stimuli/bw_bc_bl/Living_Things/Animals/tapir_9.jpg,Animals,0,tapir,0,55,55,82,258.437093585,nV_V,2,258.442139818,259.789934673,0,1,2.50567223883,262.316176407,1,1,1.04251227656,5,6.0,32,bw,99.7821515087,2019_may_14_1553,007,256,20,5,pedro,Experiment_EEG_version,20,
Living_Things,../experiment_stimuli/bw_bc_bl/Living_Things/Marine_creatures/whale_0.jpg,Marine_creatures,0,whale,0,56,56,94,265.09155908,V_nV,1,265.09647483,266.454422393,1,1,1.70393976237,268.178928906,3,0,0.691733172105,5,6.0,32,bw,99.7821515087,2019_may_14_1553,007,256,20,5,pedro,Experiment_EEG_version,20,
Nonliving_Things,../experiment_stimuli/bw_bc_bl/Nonliving_Things/Buildings/palace_2.jpg,Buildings,0,palace,0,57,57,58,270.603550975,V_nV,2,270.610747789,271.946361578,0,1,0.7518657209,272.718780024,1,1,1.34314561769,5,6.5,32,bw,99.7821515087,2019_may_14_1553,007,256,20,5,pedro,Experiment_EEG_version,20,
Nonliving_Things,../experiment_stimuli/bw_bc_bl/Nonliving_Things/Musical_Inst/piano__5.jpg,Musical_Inst,0,piano,0,58,58,62,275.7948285,V_nV,2,275.799815263,277.167718353,0,1,1.59368585271,278.781956539,3,0,0.711756671255,5,6.0,32,bw,99.7821515087,2019_may_14_1553,007,256,20,5,pedro,Experiment_EEG_version,20,
Nonliving_Things,../experiment_stimuli/bw_bc_bl/Nonliving_Things/Buildings/mill_18.jpg,Buildings,0,mill,0,59,59,53,281.226632881,V_nV,2,281.231600168,282.579472172,0,1,1.29305502679,283.893116719,1,1,0.731817154447,5,8.0,32,bw,99.7821515087,2019_may_14_1553,007,256,20,5,pedro,Experiment_EEG_version,20,
Living_Things,../experiment_stimuli/bw_bc_bl/Living_Things/Animals/cheetah_1.jpg,Animals,0,cheetah,0,60,60,16,286.357786004,V_nV,1,286.362872571,287.730673267,0,2,0.922242066707,288.673476889,1,1,0.451199564617,5,6.0,32,bw,99.7821515087,2019_may_14_1553,007,256,20,5,pedro,Experiment_EEG_version,20,
Nonliving_Things,../experiment_stimuli/bw_bc_bl/Nonliving_Things/Furniture/table_12.jpg,Furniture,0,table,0,61,61,81,290.857569034,nV_V,1,290.862502881,292.230459158,1,1,0.832027854631,293.083041847,3,0,0.260791039502,5,7.0,32,bw,99.7821515087,2019_may_14_1553,007,256,20,5,pedro,Experiment_EEG_version,20,
Nonliving_Things,../experiment_stimuli/bw_bc_bl/Nonliving_Things/Furniture/bookcase_12.jpg,Furniture,0,bookcase,0,62,62,8,295.076744226,nV_V,1,295.081826977,296.429586393,1,1,1.00240509876,297.45253752,3,0,1.39324801648,5,6.5,32,bw,99.7821515087,2019_may_14_1553,007,256,20,5,pedro,Experiment_EEG_version,20,
Living_Things,../experiment_stimuli/bw_bc_bl/Living_Things/Birds/duck_24.jpg,Birds,0,duck,0,63,63,26,300.578704456,nV_V,2,300.583679802,301.901475557,0,1,1.59372540104,303.515766111,1,1,0.391081158537,5,6.0,32,bw,99.7821515087,2019_may_14_1553,007,256,20,5,pedro,Experiment_EEG_version,20,
Nonliving_Things,../experiment_stimuli/bw_bc_bl/Nonliving_Things/Vehicles/boat_10.jpg,Vehicles,0,boat,0,64,64,7,305.639701136,V_nV,2,305.644519022,306.972504503,1,2,1.41330064303,308.406352611,3,0,1.23289967742,5,7.0,32,bw,99.7821515087,2019_may_14_1553,007,256,20,5,pedro,Experiment_EEG_version,20,
Nonliving_Things,../experiment_stimuli/bw_bc_bl/Nonliving_Things/Furniture/sofa_19.jpg,Furniture,0,sofa,0,65,65,78,311.372159952,V_nV,2,311.37699,312.684916802,0,1,1.88416175637,314.599661741,1,1,0.401094646659,5,6.5,32,bw,99.7821515087,2019_may_14_1553,007,256,20,5,pedro,Experiment_EEG_version,20,
Living_Things,../experiment_stimuli/bw_bc_bl/Living_Things/Birds/kiwi_16.jpg,Birds,0,kiwi,0,66,66,44,316.733811575,nV_V,2,316.738621551,318.066615239,1,2,0.912221751234,318.999395929,2,0,0.401093439723,5,7.5,32,bw,99.7821515087,2019_may_14_1553,007,256,20,5,pedro,Experiment_EEG_version,20,
Nonliving_Things,../experiment_stimuli/bw_bc_bl/Nonliving_Things/Furniture/chair_19.jpg,Furniture,0,chair,0,67,67,15,321.133387115,V_nV,2,321.138200441,322.446136488,1,2,1.67387033987,324.140564078,2,0,1.5736483917,5,6.0,32,bw,99.7821515087,2019_may_14_1553,007,256,20,5,pedro,Experiment_EEG_version,20,
Nonliving_Things,../experiment_stimuli/bw_bc_bl/Nonliving_Things/Kitchen_Uten/coking-pot_14.jpg,Kitchen_Uten,0,coking-pot,0,68,68,18,327.447104287,nV_V,1,327.453295451,328.7498371,1,1,1.01242441783,329.782827521,2,0,0.8921600951,5,6.0,32,bw,99.7821515087,2019_may_14_1553,007,256,20,5,pedro,Experiment_EEG_version,20,
Nonliving_Things,../experiment_stimuli/bw_bc_bl/Nonliving_Things/Buildings/cathedral_22.jpg,Buildings,0,cathedral,0,69,69,14,332.407900023,nV_V,1,332.414049751,333.700601701,1,1,2.07473854226,335.795891427,1,1,0.280826166098,5,6.5,32,bw,99.7821515087,2019_may_14_1553,007,256,20,5,pedro,Experiment_EEG_version,20,
Living_Things,../experiment_stimuli/bw_bc_bl/Living_Things/Marine_creatures/crab_10.jpg,Marine_creatures,0,crab,0,70,70,21,337.809628301,nV_V,2,337.814549111,339.132410147,1,2,1.13269279676,340.285655333,3,0,0.2307218801,5,7.5,32,bw,99.7821515087,2019_may_14_1553,007,256,20,5,pedro,Experiment_EEG_version,20,
Living_Things,../experiment_stimuli/bw_bc_bl/Living_Things/Marine_creatures/narwhal_10.jpg,Marine_creatures,0,narwhal,0,71,71,55,342.249280685,nV_V,2,342.255161458,343.541998577,1,2,1.96459730761,345.527155466,3,0,1.37320811162,5,6.5,32,bw,99.7821515087,2019_may_14_1553,007,256,20,5,pedro,Experiment_EEG_version,20,
Living_Things,../experiment_stimuli/bw_bc_bl/Living_Things/Birds/seagull_17.jpg,Birds,0,seagull,0,72,72,74,348.633154611,V_nV,1,348.639403447,349.895808051,1,1,2.27519693057,352.191563371,2,0,0.77190425701,5,6.0,32,bw,99.7821515087,2019_may_14_1553,007,256,20,5,pedro,Experiment_EEG_version,20,
Living_Things,../experiment_stimuli/bw_bc_bl/Living_Things/Birds/partridge_15.jpg,Birds,0,partridge,0,73,73,59,354.696351461,V_nV,1,354.701160002,355.93894076,1,1,1.74401955289,357.703507515,1,1,0.611553523398,5,6.0,32,bw,99.7821515087,2019_may_14_1553,007,256,20,5,pedro,Experiment_EEG_version,20,
Nonliving_Things,../experiment_stimuli/bw_bc_bl/Nonliving_Things/Furniture/Chest-of-drawers_11.jpg,Furniture,0,Chest-of-drawers,0,74,74,0,360.048008336,V_nV,2,360.054273521,361.330668181,0,1,0.791972112842,362.143201349,2,0,0.66166076099,5,6.0,32,bw,99.7821515087,2019_may_14_1553,007,256,20,5,pedro,Experiment_EEG_version,20,
Living_Things,../experiment_stimuli/bw_bc_bl/Living_Things/Birds/magpie_3.jpg,Birds,0,magpie,0,75,75,51,364.537758552,V_nV,1,364.543971632,365.800386762,1,1,2.70611492102,368.527047768,2,0,0.36100875854,5,6.5,32,bw,99.7821515087,2019_may_14_1553,007,256,20,5,pedro,Experiment_EEG_version,20,
Living_Things,../experiment_stimuli/bw_bc_bl/Living_Things/Birds/pigeon_6.jpg,Birds,0,pigeon,0,76,76,63,370.620953848,nV_V,2,370.625761735,371.873584999,0,1,2.41548127879,374.309624852,2,0,0.701748739346,5,6.0,32,bw,99.7821515087,2019_may_14_1553,007,256,20,5,pedro,Experiment_EEG_version,20,
Nonliving_Things,../experiment_stimuli/bw_bc_bl/Nonliving_Things/Furniture/lamp_17.jpg,Furniture,0,lamp,0,77,77,46,376.7442691,nV_V,1,376.748963703,377.996895947,1,1,1.21286762628,379.230293128,2,0,3.32745278586,5,7.5,32,bw,99.7821515087,2019_may_14_1553,007,256,20,5,pedro,Experiment_EEG_version,20,
Nonliving_Things,../experiment_stimuli/bw_bc_bl/Nonliving_Things/Furniture/bed_17.jpg,Furniture,0,bed,0,78,78,5,384.290676987,V_nV,2,384.296949378,385.523256492,0,1,0.701737509982,386.245566854,2,0,0.330939591222,5,6.5,32,bw,99.7821515087,2019_may_14_1553,007,256,20,5,pedro,Experiment_EEG_version,20,
Nonliving_Things,../experiment_stimuli/bw_bc_bl/Nonliving_Things/Buildings/church_26.jpg,Buildings,0,church,0,79,79,17,388.309408365,nV_V,1,388.314213635,389.54198937,1,1,0.701751122775,390.264291229,2,0,0.290876484767,5,6.0,32,bw,99.7821515087,2019_may_14_1553,007,256,20,5,pedro,Experiment_EEG_version,20,
Living_Things,../experiment_stimuli/bw_bc_bl/Living_Things/Insects/ladybird_7.jpg,Insects,0,ladybird,0,80,80,45,392.288056227,V_nV,1,392.292803997,393.520649356,1,1,1.44339301268,394.984595307,1,1,0.230722169392,5,6.5,32,bw,99.7821515087,2019_may_14_1553,007,256,20,5,pedro,Experiment_EEG_version,20,
Nonliving_Things,../experiment_stimuli/bw_bc_bl/Nonliving_Things/Musical_Inst/drum_25.jpg,Musical_Inst,0,drum,0,81,81,25,396.948183581,V_nV,2,396.95300514,398.210837716,1,2,1.26311428269,399.494486445,1,1,0.371035723831,5,6.0,32,bw,99.7821515087,2019_may_14_1553,007,256,20,5,pedro,Experiment_EEG_version,20,
Living_Things,../experiment_stimuli/bw_bc_bl/Living_Things/Animals/rhino_22.jpg,Animals,0,rhino,0,82,82,68,401.598294198,nV_V,2,401.603077141,402.860944893,1,2,0.651645054808,403.533144691,2,0,0.451055555197,5,6.0,32,bw,99.7821515087,2019_may_14_1553,007,256,20,5,pedro,Experiment_EEG_version,20,
Living_Things,../experiment_stimuli/bw_bc_bl/Living_Things/Animals/cow_14.jpg,Animals,0,cow,0,83,83,20,405.7172439,nV_V,2,405.722068508,406.969885085,1,2,0.882152008882,407.87257707,2,0,0.180631318886,5,6.0,32,bw,99.7821515087,2019_may_14_1553,007,256,20,5,pedro,Experiment_EEG_version,20,
Living_Things,../experiment_stimuli/bw_bc_bl/Living_Things/Birds/hen_2.jpg,Birds,0,hen,0,84,84,38,409.786099076,nV_V,2,409.79081779,411.038713982,0,1,0.982363092946,412.041655724,1,1,0.190636589192,5,6.0,32,bw,99.7821515087,2019_may_14_1553,007,256,20,5,pedro,Experiment_EEG_version,20,
Nonliving_Things,../experiment_stimuli/bw_bc_bl/Nonliving_Things/Vehicles/car_13.jpg,Vehicles,0,car,0,85,85,11,413.965176484,nV_V,1,413.970284118,415.217801872,1,1,0.57147017261,415.809829145,3,0,0.170601714635,5,6.0,32,bw,99.7821515087,2019_may_14_1553,007,256,20,5,pedro,Experiment_EEG_version,20,
Living_Things,../experiment_stimuli/bw_bc_bl/Living_Things/Animals/hippopotamus_4.jpg,Animals,0,hippopotamus,0,86,86,39,417.713323309,V_nV,1,417.721188287,418.945904942,1,1,0.691733048239,419.658235406,1,1,0.852077112766,5,6.5,32,bw,99.7821515087,2019_may_14_1553,007,256,20,5,pedro,Experiment_EEG_version,20,
Living_Things,../experiment_stimuli/bw_bc_bl/Living_Things/Birds/rooster_1.jpg,Birds,0,rooster,0,87,87,70,422.243171837,V_nV,1,422.248043624,423.505815825,1,1,1.55360668589,425.079976585,2,0,1.18279963947,5,6.0,32,bw,99.7821515087,2019_may_14_1553,007,256,20,5,pedro,Experiment_EEG_version,20,
Living_Things,../experiment_stimuli/bw_bc_bl/Living_Things/Birds/penguin_15.jpg,Birds,0,penguin,0,88,88,61,427.995675452,nV_V,2,428.000499598,429.258325046,1,2,0.872123968496,430.151010848,2,0,0.200640566181,5,6.5,32,bw,99.7821515087,2019_may_14_1553,007,256,20,5,pedro,Experiment_EEG_version,20,
Nonliving_Things,../experiment_stimuli/bw_bc_bl/Nonliving_Things/Furniture/armchair_5.jpg,Furniture,0,armchair,0,89,89,2,432.084569671,V_nV,2,432.089249138,433.32718221,0,1,0.461230146408,433.80896043,1,1,0.621573045501,5,6.0,32,bw,99.7821515087,2019_may_14_1553,007,256,20,5,pedro,Experiment_EEG_version,20,
Living_Things,../experiment_stimuli/bw_bc_bl/Living_Things/Birds/barn-owl_1.jpg,Birds,0,barn-owl,0,90,90,4,436.173485066,nV_V,2,436.178253525,437.426079533,0,1,0.972344356705,438.418972363,1,1,0.561454384122,5,6.0,32,bw,99.7821515087,2019_may_14_1553,007,256,20,5,pedro,Experiment_EEG_version,20,
Living_Things,../experiment_stimuli/bw_bc_bl/Living_Things/Marine_creatures/dolphin_7.jpg,Marine_creatures,0,dolphin,0,91,91,23,440.71331935,nV_V,2,440.718188078,441.985997029,1,2,0.862101991719,442.868652088,1,1,0.340962936461,5,6.0,32,bw,99.7821515087,2019_may_14_1553,007,256,20,5,pedro,Experiment_EEG_version,20,
Living_Things,../experiment_stimuli/bw_bc_bl/Living_Things/Animals/lynx_19.jpg,Animals,0,lynx,0,92,92,50,444.952538401,nV_V,2,444.957374723,446.255272289,1,2,1.11264656147,447.388460022,1,1,0.320919144724,5,6.0,32,bw,99.7821515087,2019_may_14_1553,007,256,20,5,pedro,Experiment_EEG_version,20,
Nonliving_Things,../experiment_stimuli/bw_bc_bl/Nonliving_Things/Buildings/granary_9.jpg,Buildings,0,granary,0,93,93,35,449.442304127,V_nV,2,449.447133874,450.755053112,0,1,0.85191865277,451.627545899,2,0,0.270806805813,5,7.5,32,bw,99.7821515087,2019_may_14_1553,007,256,20,5,pedro,Experiment_EEG_version,20,
Nonliving_Things,../experiment_stimuli/bw_bc_bl/Nonliving_Things/Kitchen_Uten/pot_6.jpg,Kitchen_Uten,0,pot,0,94,94,66,453.641425602,V_nV,2,453.646236477,454.954181354,1,2,0.711776291078,455.68650846,3,0,0.271039231098,5,8.0,32,bw,99.7821515087,2019_may_14_1553,007,256,20,5,pedro,Experiment_EEG_version,20,
Nonliving_Things,../experiment_stimuli/bw_bc_bl/Nonliving_Things/Furniture/lectern_12.jpg,Furniture,0,lectern,0,95,95,47,457.700246759,nV_V,1,457.706757185,458.982949667,0,2,3.11700722831,462.120492004,1,1,0.310896945943,5,6.0,32,bw,99.7821515087,2019_may_14_1553,007,256,20,5,pedro,Experiment_EEG_version,20,
