category,probe_path,subcategory,fixation_duration,label,trials.thisRepN,trials.thisTrialN,trials.thisN,trials.thisIndex,image_onset_time,response_window,correctAns,probe_onset,discrim_resptime,response.corr,response.keys,response.rt,visible_resptime,visible.keys,visible.corr,visible.rt,probeFrames,jitter2,n_square,experiment_color,frameRate,date,session,image_size,premask_dur,probeFrames,participant,expName,postmask_dur,
Nonliving_Things,../experiment_stimuli/bw_bc_bl/Nonliving_Things/Kitchen_Uten/saucepan_23.jpg,Kitchen_Uten,0,saucepan,0,0,0,71,3.71662515966,nV_V,1,3.73865491542,4.99930328206,1,1,0.902028825949,5.93217054999,3,0,0.661661054241,5,6.5,32,bw,99.7795201038,2019_may_14_1613,009,256,20,5,pedro,Experiment_EEG_version,20,
Nonliving_Things,../experiment_stimuli/bw_bc_bl/Nonliving_Things/Furniture/sofa_10.jpg,Furniture,0,sofa,0,1,1,78,8.32662886672,V_nV,2,8.33149571792,9.5692496305,0,1,0.651664606994,10.2414774507,1,1,0.120486154163,5,6.0,32,bw,99.7795201038,2019_may_14_1613,009,256,20,5,pedro,Experiment_EEG_version,20,
Living_Things,../experiment_stimuli/bw_bc_bl/Living_Things/Animals/zebra_13.jpg,Animals,0,zebra,0,2,2,95,12.0948304192,nV_V,2,12.0997934759,13.3574751443,1,2,1.02229982527,14.4003146603,3,0,0.180618187704,5,7.0,32,bw,99.7795201038,2019_may_14_1613,009,256,20,5,pedro,Experiment_EEG_version,20,
Living_Things,../experiment_stimuli/bw_bc_bl/Living_Things/Marine_creatures/manatee_15.jpg,Marine_creatures,0,manatee,0,3,3,52,16.3139882988,nV_V,2,16.3197807947,17.5465712102,0,1,0.0803936116281,17.647529069,1,1,0.130503980618,5,6.5,32,bw,99.7795201038,2019_may_14_1613,009,256,20,5,pedro,Experiment_EEG_version,20,
Living_Things,../experiment_stimuli/bw_bc_bl/Living_Things/Animals/horse_22.jpg,Animals,0,horse,0,4,4,40,19.5109469986,V_nV,1,19.5163463309,20.7535424809,1,1,0.0603546017664,20.8344764346,1,1,0.130508706323,5,8.0,32,bw,99.7795201038,2019_may_14_1613,009,256,20,5,pedro,Experiment_EEG_version,20,
Nonliving_Things,../experiment_stimuli/bw_bc_bl/Nonliving_Things/Musical_Inst/trumpet_0.jpg,Musical_Inst,0,trumpet,0,5,5,88,22.6978940935,nV_V,1,22.7033372898,23.9504879325,1,1,0.611559328216,24.582601846,1,1,0.120485342166,5,7.0,32,bw,99.7795201038,2019_may_14_1613,009,256,20,5,pedro,Experiment_EEG_version,20,
Nonliving_Things,../experiment_stimuli/bw_bc_bl/Nonliving_Things/Musical_Inst/drum_5.jpg,Musical_Inst,0,drum,0,6,6,25,26.4359875694,nV_V,1,26.4408876987,27.7086616851,1,1,0.561297389911,28.2905240097,3,0,0.150545580778,5,7.0,32,bw,99.7795201038,2019_may_14_1613,009,256,20,5,pedro,Experiment_EEG_version,20,
Nonliving_Things,../experiment_stimuli/bw_bc_bl/Nonliving_Things/Buildings/church_7.jpg,Buildings,0,church,0,7,7,17,30.174114346,nV_V,1,30.1789398519,31.4167179671,1,1,0.430158207892,31.8684622909,1,1,0.120501146419,5,6.0,32,bw,99.7795201038,2019_may_14_1613,009,256,20,5,pedro,Experiment_EEG_version,20,
Living_Things,../experiment_stimuli/bw_bc_bl/Living_Things/Animals/cat_16.jpg,Animals,0,cat,0,8,8,13,33.7218278081,V_nV,1,33.7267614667,34.9944912658,1,1,1.94445935148,36.9595054958,1,1,0.100437027751,5,6.0,32,bw,99.7795201038,2019_may_14_1613,009,256,20,5,pedro,Experiment_EEG_version,20,
Living_Things,../experiment_stimuli/bw_bc_bl/Living_Things/Birds/partridge_7.jpg,Birds,0,partridge,0,9,9,59,38.792851856,nV_V,2,38.7977306809,40.0855669664,1,2,1.13268616918,41.2388048904,3,0,0.140526461124,5,6.0,32,bw,99.7795201038,2019_may_14_1613,009,256,20,5,pedro,Experiment_EEG_version,20,
Living_Things,../experiment_stimuli/bw_bc_bl/Living_Things/Animals/tapir_21.jpg,Animals,0,tapir,0,10,10,82,43.1122347367,nV_V,2,43.1182408197,44.3748792738,0,1,0.952329406282,45.3477858967,1,1,0.14052424673,5,6.5,32,bw,99.7795201038,2019_may_14_1613,009,256,20,5,pedro,Experiment_EEG_version,20,
Nonliving_Things,../experiment_stimuli/bw_bc_bl/Nonliving_Things/Vehicles/van_18.jpg,Vehicles,0,van,0,11,11,91,47.2211678415,V_nV,2,47.2260994214,48.4938344496,1,2,0.972343852627,49.486729136,2,0,0.701741393597,5,6.0,32,bw,99.7795201038,2019_may_14_1613,009,256,20,5,pedro,Experiment_EEG_version,20,
Nonliving_Things,../experiment_stimuli/bw_bc_bl/Nonliving_Things/Tools/hammer_0.jpg,Tools,0,hammer,0,12,12,37,51.9213855236,V_nV,2,51.9278364989,53.1840276097,0,1,1.22290475678,54.4274953878,1,1,0.130506375514,5,6.5,32,bw,99.7795201038,2019_may_14_1613,009,256,20,5,pedro,Experiment_EEG_version,20,
Nonliving_Things,../experiment_stimuli/bw_bc_bl/Nonliving_Things/Buildings/palace_17.jpg,Buildings,0,palace,0,13,13,58,56.2908879909,V_nV,2,56.2958200255,57.563545753,0,1,0.451227026468,58.0353417931,1,1,0.140519998677,5,6.5,32,bw,99.7795201038,2019_may_14_1613,009,256,20,5,pedro,Experiment_EEG_version,20,
Nonliving_Things,../experiment_stimuli/bw_bc_bl/Nonliving_Things/Buildings/cathedral_7.jpg,Buildings,0,cathedral,0,14,14,14,59.9087363919,nV_V,1,59.9135583378,61.2014627202,1,1,0.902260517934,62.1242610682,1,1,0.14052777295,5,7.5,32,bw,99.7795201038,2019_may_14_1613,009,256,20,5,pedro,Experiment_EEG_version,20,
Living_Things,../experiment_stimuli/bw_bc_bl/Living_Things/Animals/lioness_25.jpg,Animals,0,lioness,0,15,15,48,63.9976329605,nV_V,2,64.0024692296,65.3003611044,1,2,1.01242541784,66.3333742649,3,0,0.130502724962,5,7.0,32,bw,99.7795201038,2019_may_14_1613,009,256,20,5,pedro,Experiment_EEG_version,20,
Nonliving_Things,../experiment_stimuli/bw_bc_bl/Nonliving_Things/Musical_Inst/saxophone_7.jpg,Musical_Inst,0,saxophone,0,16,16,72,68.1967842283,nV_V,1,68.2018662156,69.4694222994,1,1,0.781924797688,70.2719155769,1,1,0.180616924539,5,7.5,32,bw,99.7795201038,2019_may_14_1613,009,256,20,5,pedro,Experiment_EEG_version,20,
Living_Things,../experiment_stimuli/bw_bc_bl/Living_Things/Birds/owl_7.jpg,Birds,0,owl,0,17,17,57,72.1854283755,nV_V,2,72.1909532326,73.4681173739,1,2,1.11264794489,74.6013218704,2,0,0.1204742259,5,6.0,32,bw,99.7795201038,2019_may_14_1613,009,256,20,5,pedro,Experiment_EEG_version,20,
Living_Things,../experiment_stimuli/bw_bc_bl/Living_Things/Birds/hummingbird_18.jpg,Birds,0,hummingbird,0,18,18,42,76.454706263,V_nV,1,76.4597066275,77.72737342,1,1,0.741864003357,78.4897992567,1,1,0.120480266982,5,6.0,32,bw,99.7795201038,2019_may_14_1613,009,256,20,5,pedro,Experiment_EEG_version,20,
Nonliving_Things,../experiment_stimuli/bw_bc_bl/Nonliving_Things/Kitchen_Uten/fondue_16.jpg,Kitchen_Uten,0,fondue,0,19,19,30,80.3431633453,nV_V,1,80.3480873009,81.6459201726,1,1,0.82201289665,82.488461674,3,0,0.170598361292,5,6.0,32,bw,99.7795201038,2019_may_14_1613,009,256,20,5,pedro,Experiment_EEG_version,20,
Living_Things,../experiment_stimuli/bw_bc_bl/Living_Things/Animals/tiger_19.jpg,Animals,0,tiger,0,20,20,84,84.3919655519,nV_V,2,84.3968812974,85.6746473362,0,1,1.02245071391,86.7176530304,1,1,0.140520265733,5,7.0,32,bw,99.7795201038,2019_may_14_1613,009,256,20,5,pedro,Experiment_EEG_version,20,
Nonliving_Things,../experiment_stimuli/bw_bc_bl/Nonliving_Things/Vehicles/tractor_26.jpg,Vehicles,0,tractor,0,21,21,86,88.5910870832,V_nV,2,88.5960045015,89.8938164262,1,2,0.992387836508,90.9067567579,3,0,0.471259220736,5,6.5,32,bw,99.7795201038,2019_may_14_1613,009,256,20,5,pedro,Experiment_EEG_version,20,
Nonliving_Things,../experiment_stimuli/bw_bc_bl/Nonliving_Things/Buildings/granary_15.jpg,Buildings,0,granary,0,22,22,35,93.1109126196,nV_V,1,93.116730397,94.3935993398,1,1,1.60371533316,96.0178758557,2,0,0.601552207954,5,7.0,32,bw,99.7795201038,2019_may_14_1613,009,256,20,5,pedro,Experiment_EEG_version,20,
Living_Things,../experiment_stimuli/bw_bc_bl/Living_Things/Birds/duck_26.jpg,Birds,0,duck,0,23,23,26,98.3523027389,V_nV,1,98.3571672632,99.6249697981,1,1,0.842058015638,100.487597015,2,0,0.100438448775,5,6.0,32,bw,99.7795201038,2019_may_14_1613,009,256,20,5,pedro,Experiment_EEG_version,20,
Living_Things,../experiment_stimuli/bw_bc_bl/Living_Things/Birds/hen_7.jpg,Birds,0,hen,0,24,24,38,102.320950714,V_nV,1,102.325793513,103.583572635,1,1,0.290856676584,103.895016569,1,1,0.12048715807,5,7.0,32,bw,99.7795201038,2019_may_14_1613,009,256,20,5,pedro,Experiment_EEG_version,20,
Nonliving_Things,../experiment_stimuli/bw_bc_bl/Nonliving_Things/Furniture/filling-cabinet_3.jpg,Furniture,0,filling-cabinet,0,25,25,29,105.748389579,V_nV,2,105.754105005,107.031071608,1,2,0.902197455114,107.953817659,3,0,0.14052578446,5,6.0,32,bw,99.7795201038,2019_may_14_1613,009,256,20,5,pedro,Experiment_EEG_version,20,
Nonliving_Things,../experiment_stimuli/bw_bc_bl/Nonliving_Things/Furniture/bookcase_9.jpg,Furniture,0,bookcase,0,26,26,8,109.827245705,V_nV,2,109.832410172,111.079869653,0,1,0.411143668229,111.521603296,1,1,0.130506965506,5,8.0,32,bw,99.7795201038,2019_may_14_1613,009,256,20,5,pedro,Experiment_EEG_version,20,
Nonliving_Things,../experiment_stimuli/bw_bc_bl/Nonliving_Things/Furniture/wardrobe_25.jpg,Furniture,0,wardrobe,0,27,27,93,113.384980441,nV_V,1,113.391485945,114.647624565,1,1,0.711778659432,115.37995643,1,1,0.150555415254,5,6.5,32,bw,99.7795201038,2019_may_14_1613,009,256,20,5,pedro,Experiment_EEG_version,20,
Living_Things,../experiment_stimuli/bw_bc_bl/Living_Things/Insects/dragonfly_20.jpg,Insects,0,dragonfly,0,28,28,24,117.26341399,V_nV,1,117.268360652,118.546097638,1,1,1.64363922388,120.210300267,2,0,0.150572715735,5,7.5,32,bw,99.7795201038,2019_may_14_1613,009,256,20,5,pedro,Experiment_EEG_version,20,
Nonliving_Things,../experiment_stimuli/bw_bc_bl/Nonliving_Things/Tools/axe_1.jpg,Tools,0,axe,0,29,29,3,122.093908065,V_nV,2,122.099868923,123.366576997,0,1,0.300880713505,123.688013382,1,1,0.15055270493,5,6.0,32,bw,99.7795201038,2019_may_14_1613,009,256,20,5,pedro,Experiment_EEG_version,20,
Nonliving_Things,../experiment_stimuli/bw_bc_bl/Nonliving_Things/Musical_Inst/tuba_16.jpg,Musical_Inst,0,tuba,0,30,30,89,125.571471697,nV_V,1,125.576490569,126.87420154,1,1,0.902186985186,127.796933074,3,0,0.290852199367,5,6.0,32,bw,99.7795201038,2019_may_14_1613,009,256,20,5,pedro,Experiment_EEG_version,20,
Living_Things,../experiment_stimuli/bw_bc_bl/Living_Things/Animals/rhino_9.jpg,Animals,0,rhino,0,31,31,68,129.820702755,V_nV,1,129.825626399,131.103395581,1,1,1.19281949988,132.316757907,1,1,0.170439814683,5,8.0,32,bw,99.7795201038,2019_may_14_1613,009,256,20,5,pedro,Experiment_EEG_version,20,
Nonliving_Things,../experiment_stimuli/bw_bc_bl/Nonliving_Things/Buildings/house_16.jpg,Buildings,0,house,0,32,32,41,134.220270826,V_nV,2,134.226823194,135.512982245,0,1,0.621580297477,136.155102146,1,1,0.140519957466,5,6.0,32,bw,99.7795201038,2019_may_14_1613,009,256,20,5,pedro,Experiment_EEG_version,20,
Living_Things,../experiment_stimuli/bw_bc_bl/Living_Things/Insects/scorpion_15.jpg,Insects,0,scorpion,0,33,33,73,138.028542181,V_nV,1,138.033500316,139.351326646,1,1,0.661655820906,140.033560958,1,1,0.170591342787,5,6.5,32,bw,99.7795201038,2019_may_14_1613,009,256,20,5,pedro,Experiment_EEG_version,20,
Living_Things,../experiment_stimuli/bw_bc_bl/Living_Things/Marine_creatures/whale_9.jpg,Marine_creatures,0,whale,0,34,34,94,141.937040664,nV_V,2,141.941880665,143.28988633,0,1,1.59369387513,144.904121749,1,1,0.170619470184,5,7.0,32,bw,99.7795201038,2019_may_14_1613,009,256,20,5,pedro,Experiment_EEG_version,20,
Living_Things,../experiment_stimuli/bw_bc_bl/Living_Things/Birds/penguin_9.jpg,Birds,0,penguin,0,35,35,61,146.807626142,V_nV,1,146.812445983,148.180513338,1,1,0.781926557422,148.982982488,2,0,0.140538709064,5,6.5,32,bw,99.7795201038,2019_may_14_1613,009,256,20,5,pedro,Experiment_EEG_version,20,
Nonliving_Things,../experiment_stimuli/bw_bc_bl/Nonliving_Things/Furniture/couch_16.jpg,Furniture,0,couch,0,36,36,19,150.856429935,nV_V,1,150.861286141,152.219293564,1,1,0.992385073274,153.232233335,2,0,0.160421232809,5,6.0,32,bw,99.7795201038,2019_may_14_1613,009,256,20,5,pedro,Experiment_EEG_version,20,
Living_Things,../experiment_stimuli/bw_bc_bl/Living_Things/Birds/goose_10.jpg,Birds,0,goose,0,37,37,34,155.1257058,V_nV,1,155.130721184,156.478555787,1,1,0.751864525431,157.250968435,3,0,0.150556689827,5,8.0,32,bw,99.7795201038,2019_may_14_1613,009,256,20,5,pedro,Experiment_EEG_version,20,
Living_Things,../experiment_stimuli/bw_bc_bl/Living_Things/Marine_creatures/narwhal_3.jpg,Marine_creatures,0,narwhal,0,38,38,55,159.134419991,V_nV,1,159.13923052,160.467225565,1,1,0.68172947719,161.169493846,1,1,0.190632092999,5,6.5,32,bw,99.7795201038,2019_may_14_1613,009,256,20,5,pedro,Experiment_EEG_version,20,
Living_Things,../experiment_stimuli/bw_bc_bl/Living_Things/Marine_creatures/killer-whale_5.jpg,Marine_creatures,0,killer-whale,0,39,39,43,163.093029046,nV_V,2,163.097966009,164.455901591,1,2,1.16275435151,165.639203479,1,1,0.15053550218,5,7.0,32,bw,99.7795201038,2019_may_14_1613,009,256,20,5,pedro,Experiment_EEG_version,20,
Living_Things,../experiment_stimuli/bw_bc_bl/Living_Things/Birds/toucan_7.jpg,Birds,0,toucan,0,40,40,85,167.522672806,V_nV,1,167.529582636,168.905564121,1,1,0.57148008619,169.497588895,1,1,0.190657412342,5,6.5,32,bw,99.7795201038,2019_may_14_1613,009,256,20,5,pedro,Experiment_EEG_version,20,
Nonliving_Things,../experiment_stimuli/bw_bc_bl/Nonliving_Things/Kitchen_Uten/teapot_15.jpg,Kitchen_Uten,0,teapot,0,41,41,83,171.421137474,V_nV,2,171.427225207,172.834116404,0,1,1.42332187545,174.277987496,1,1,0.551270698954,5,6.0,32,bw,99.7795201038,2019_may_14_1613,009,256,20,5,pedro,Experiment_EEG_version,20,
Nonliving_Things,../experiment_stimuli/bw_bc_bl/Nonliving_Things/Vehicles/boat_19.jpg,Vehicles,0,boat,0,42,42,7,176.562312315,nV_V,1,176.567202489,177.995321273,1,1,0.661508278106,178.677395794,1,1,0.260784900689,5,6.0,32,bw,99.7795201038,2019_may_14_1613,009,256,20,5,pedro,Experiment_EEG_version,20,
Living_Things,../experiment_stimuli/bw_bc_bl/Living_Things/Insects/ladybird_21.jpg,Insects,0,ladybird,0,43,43,45,180.671245829,V_nV,1,180.676054043,182.114278415,1,1,0.711785798601,182.846627167,3,0,0.230724815978,5,6.0,32,bw,99.7795201038,2019_may_14_1613,009,256,20,5,pedro,Experiment_EEG_version,20,
Nonliving_Things,../experiment_stimuli/bw_bc_bl/Nonliving_Things/Kitchen_Uten/frying-pan_6.jpg,Kitchen_Uten,0,frying-pan,0,44,44,31,184.810236996,V_nV,2,184.815022289,186.233233068,1,2,0.932230055099,187.186045795,3,0,0.330791014421,5,6.5,32,bw,99.7795201038,2019_may_14_1613,009,256,20,5,pedro,Experiment_EEG_version,20,
Living_Things,../experiment_stimuli/bw_bc_bl/Living_Things/Marine_creatures/dolphin_6.jpg,Marine_creatures,0,dolphin,0,45,45,23,189.249885496,V_nV,1,189.254767848,190.642811973,1,1,0.801995412505,191.465370707,3,0,0.2808267902,5,6.0,32,bw,99.7795201038,2019_may_14_1613,009,256,20,5,pedro,Experiment_EEG_version,20,
Living_Things,../experiment_stimuli/bw_bc_bl/Living_Things/Marine_creatures/sperm-whale_25.jpg,Marine_creatures,0,sperm-whale,0,46,46,80,193.47907918,nV_V,2,193.483854401,194.841946455,0,1,0.842056218651,195.704578856,1,1,0.260790554341,5,7.5,32,bw,99.7795201038,2019_may_14_1613,009,256,20,5,pedro,Experiment_EEG_version,20,
Living_Things,../experiment_stimuli/bw_bc_bl/Living_Things/Animals/cheetah_16.jpg,Animals,0,cheetah,0,47,47,16,197.698253529,V_nV,1,197.703078404,199.081155724,1,1,0.791976048669,199.893708046,2,0,0.401090229629,5,6.5,32,bw,99.7795201038,2019_may_14_1613,009,256,20,5,pedro,Experiment_EEG_version,20,
Living_Things,../experiment_stimuli/bw_bc_bl/Living_Things/Birds/seagull_13.jpg,Birds,0,seagull,0,48,48,74,202.027657642,V_nV,1,202.032489908,203.410578337,0,2,1.91440563544,205.345553941,1,1,0.571471575066,5,6.0,32,bw,99.7795201038,2019_may_14_1613,009,256,20,5,pedro,Experiment_EEG_version,20,
Living_Things,../experiment_stimuli/bw_bc_bl/Living_Things/Animals/lynx_15.jpg,Animals,0,lynx,0,49,49,50,207.649888533,V_nV,1,207.655855854,209.042810682,1,1,2.1447312953,211.208102364,2,0,1.85425370384,5,6.0,32,bw,99.7795201038,2019_may_14_1613,009,256,20,5,pedro,Experiment_EEG_version,20,
Nonliving_Things,../experiment_stimuli/bw_bc_bl/Nonliving_Things/Kitchen_Uten/cup_18.jpg,Kitchen_Uten,0,cup,0,50,50,22,214.795410905,V_nV,2,214.800098297,216.168303375,0,1,0.972184899962,217.161074025,1,1,1.49347661866,5,6.5,32,bw,99.7795201038,2019_may_14_1613,009,256,20,5,pedro,Experiment_EEG_version,20,
Living_Things,../experiment_stimuli/bw_bc_bl/Living_Things/Marine_creatures/pomfret_3.jpg,Marine_creatures,0,pomfret,0,51,51,65,220.387569374,nV_V,2,220.39232905,221.790523665,0,1,1.73400058359,223.545076773,1,1,2.3453114531,5,6.0,32,bw,99.7795201038,2019_may_14_1613,009,256,20,5,pedro,Experiment_EEG_version,20,
Living_Things,../experiment_stimuli/bw_bc_bl/Living_Things/Animals/cow_11.jpg,Animals,0,cow,0,52,52,20,227.623298499,V_nV,1,227.628080351,229.066343614,0,2,1.58367706725,230.670578252,1,1,0.541397483379,5,7.5,32,bw,99.7795201038,2019_may_14_1613,009,256,20,5,pedro,Experiment_EEG_version,20,
Nonliving_Things,../experiment_stimuli/bw_bc_bl/Nonliving_Things/Buildings/mill_25.jpg,Buildings,0,mill,0,53,53,53,232.944871282,V_nV,2,232.952016071,234.397929149,0,1,1.84423206898,236.262733306,1,1,0.67168515129,5,6.5,32,bw,99.7795201038,2019_may_14_1613,009,256,20,5,pedro,Experiment_EEG_version,20,
Nonliving_Things,../experiment_stimuli/bw_bc_bl/Nonliving_Things/Vehicles/plane_15.jpg,Vehicles,0,plane,0,54,54,64,238.667307189,nV_V,1,238.67212865,240.120367653,0,2,3.38761921739,243.528547926,2,0,0.220693779178,5,6.5,32,bw,99.7795201038,2019_may_14_1613,009,256,20,5,pedro,Experiment_EEG_version,20,
Living_Things,../experiment_stimuli/bw_bc_bl/Living_Things/Birds/rooster_7.jpg,Birds,0,rooster,0,55,55,70,245.482118651,V_nV,1,245.486936119,246.935180683,1,1,0.651640456985,247.607366996,1,1,0.170609206834,5,6.0,32,bw,99.7795201038,2019_may_14_1613,009,256,20,5,pedro,Experiment_EEG_version,20,
Living_Things,../experiment_stimuli/bw_bc_bl/Living_Things/Birds/goldfinch_2.jpg,Birds,0,goldfinch,0,56,56,33,249.510883189,V_nV,1,249.515883182,250.973969773,1,1,0.832038599125,251.826540007,2,0,0.250611429452,5,6.0,32,bw,99.7795201038,2019_may_14_1613,009,256,20,5,pedro,Experiment_EEG_version,20,
Nonliving_Things,../experiment_stimuli/bw_bc_bl/Nonliving_Things/Buildings/factory_9.jpg,Buildings,0,factory,0,57,57,28,253.810225131,V_nV,2,253.814965063,255.263286261,0,1,1.18280765438,256.466649083,1,1,0.140525558847,5,8.0,32,bw,99.7795201038,2019_may_14_1613,009,256,20,5,pedro,Experiment_EEG_version,20,
Living_Things,../experiment_stimuli/bw_bc_bl/Living_Things/Marine_creatures/crab_13.jpg,Marine_creatures,0,crab,0,58,58,21,258.340074757,V_nV,1,258.345004953,259.81319113,1,1,0.801969815337,260.635693158,3,0,0.160426138551,5,6.0,32,bw,99.7795201038,2019_may_14_1613,009,256,20,5,pedro,Experiment_EEG_version,20,
Nonliving_Things,../experiment_stimuli/bw_bc_bl/Nonliving_Things/Furniture/Chest-of-drawers_22.jpg,Furniture,0,Chest-of-drawers,0,59,59,0,262.529185721,nV_V,1,262.534017366,263.972228461,1,1,0.972361134482,264.965156267,3,0,0.120475808391,5,6.0,32,bw,99.7795201038,2019_may_14_1613,009,256,20,5,pedro,Experiment_EEG_version,20,
Nonliving_Things,../experiment_stimuli/bw_bc_bl/Nonliving_Things/Buildings/castle_5.jpg,Buildings,0,castle,0,60,60,12,266.818510998,nV_V,1,266.823225889,268.231476913,1,1,0.81199221313,269.064031012,3,0,0.130503330438,5,6.0,32,bw,99.7795201038,2019_may_14_1613,009,256,20,5,pedro,Experiment_EEG_version,20,
Living_Things,../experiment_stimuli/bw_bc_bl/Living_Things/Marine_creatures/lobster_12.jpg,Marine_creatures,0,lobster,0,61,61,49,270.927428915,nV_V,2,270.932229591,272.320362805,1,2,1.95447868918,274.295409049,3,0,1.12266280508,5,6.0,32,bw,99.7795201038,2019_may_14_1613,009,256,20,5,pedro,Experiment_EEG_version,20,
Living_Things,../experiment_stimuli/bw_bc_bl/Living_Things/Animals/elephant_19.jpg,Animals,0,elephant,0,62,62,27,277.150962439,nV_V,2,277.157047003,278.513883191,1,2,0.791950161802,279.326346221,3,0,0.140523363429,5,6.0,32,bw,99.7795201038,2019_may_14_1613,009,256,20,5,pedro,Experiment_EEG_version,20,
Nonliving_Things,../experiment_stimuli/bw_bc_bl/Nonliving_Things/Vehicles/ship_23.jpg,Vehicles,0,ship,0,63,63,76,281.199763266,V_nV,2,281.204487015,282.552613245,1,2,0.842048229882,283.415202782,2,0,0.19062757463,5,7.0,32,bw,99.7795201038,2019_may_14_1613,009,256,20,5,pedro,Experiment_EEG_version,20,
Nonliving_Things,../experiment_stimuli/bw_bc_bl/Nonliving_Things/Kitchen_Uten/small-saucepan_24.jpg,Kitchen_Uten,0,small-saucepan,0,64,64,77,285.33875979,V_nV,2,285.343554331,286.671559112,1,2,0.852083405887,287.544195528,2,0,0.150567952835,5,6.0,32,bw,99.7795201038,2019_may_14_1613,009,256,20,5,pedro,Experiment_EEG_version,20,
Living_Things,../experiment_stimuli/bw_bc_bl/Living_Things/Birds/ostrich_5.jpg,Birds,0,ostrich,0,65,65,56,289.427647663,V_nV,1,289.432526165,290.760449113,1,1,2.45556316344,293.246572204,1,1,1.10262002441,5,6.5,32,bw,99.7795201038,2019_may_14_1613,009,256,20,5,pedro,Experiment_EEG_version,20,
Living_Things,../experiment_stimuli/bw_bc_bl/Living_Things/Animals/armadillo_21.jpg,Animals,0,armadillo,0,66,66,1,296.082114298,V_nV,1,296.086888778,297.43495466,1,1,0.852077973483,298.307578805,3,0,0.190474362345,5,7.0,32,bw,99.7795201038,2019_may_14_1613,009,256,20,5,pedro,Experiment_EEG_version,20,
Nonliving_Things,../experiment_stimuli/bw_bc_bl/Nonliving_Things/Kitchen_Uten/coking-pot_8.jpg,Kitchen_Uten,0,coking-pot,0,67,67,18,300.231131073,V_nV,2,300.237209102,301.563931508,0,1,0.661667708308,302.246163083,1,1,0.150545433979,5,7.0,32,bw,99.7795201038,2019_may_14_1613,009,256,20,5,pedro,Experiment_EEG_version,20,
Living_Things,../experiment_stimuli/bw_bc_bl/Living_Things/Birds/pigeon_13.jpg,Birds,0,pigeon,0,68,68,63,304.129603357,V_nV,1,304.134389845,305.482450667,1,1,1.79415371851,307.297172873,2,0,0.882143283612,5,6.0,32,bw,99.7795201038,2019_may_14_1613,009,256,20,5,pedro,Experiment_EEG_version,20,
Nonliving_Things,../experiment_stimuli/bw_bc_bl/Nonliving_Things/Vehicles/train_4.jpg,Vehicles,0,train,0,69,69,87,309.912190121,nV_V,1,309.916960616,311.265019002,1,1,0.96231998899,312.247901046,1,1,0.140374004666,5,6.5,32,bw,99.7795201038,2019_may_14_1613,009,256,20,5,pedro,Experiment_EEG_version,20,
Nonliving_Things,../experiment_stimuli/bw_bc_bl/Nonliving_Things/Furniture/table_18.jpg,Furniture,0,table,0,70,70,81,314.121325794,V_nV,2,314.126143632,315.494214731,1,2,0.721635022026,316.236418823,1,1,0.270821395679,5,6.5,32,bw,99.7795201038,2019_may_14_1613,009,256,20,5,pedro,Experiment_EEG_version,20,
Living_Things,../experiment_stimuli/bw_bc_bl/Living_Things/Birds/magpie_11.jpg,Birds,0,magpie,0,71,71,51,318.240282557,V_nV,1,318.245097743,319.633211777,1,1,1.28301396366,320.936794085,1,1,0.130501194741,5,6.5,32,bw,99.7795201038,2019_may_14_1613,009,256,20,5,pedro,Experiment_EEG_version,20,
Nonliving_Things,../experiment_stimuli/bw_bc_bl/Nonliving_Things/Furniture/chair_26.jpg,Furniture,0,chair,0,72,72,15,322.80020459,V_nV,2,322.805011728,324.213164414,1,2,0.872120483429,325.105829348,3,0,0.591511299543,5,7.0,32,bw,99.7795201038,2019_may_14_1613,009,256,20,5,pedro,Experiment_EEG_version,20,
Nonliving_Things,../experiment_stimuli/bw_bc_bl/Nonliving_Things/Vehicles/car_6.jpg,Vehicles,0,car,0,73,73,11,327.430255551,V_nV,2,327.435041317,328.823186058,1,2,1.26297376194,330.106707408,3,0,0.371032900701,5,6.0,32,bw,99.7795201038,2019_may_14_1613,009,256,20,5,pedro,Experiment_EEG_version,20,
Nonliving_Things,../experiment_stimuli/bw_bc_bl/Nonliving_Things/Musical_Inst/violin_3.jpg,Musical_Inst,0,violin,0,74,74,92,332.210648773,V_nV,2,332.217028122,333.593574103,1,2,0.721813516051,334.335924204,3,0,3.99894097331,5,6.5,32,bw,99.7795201038,2019_may_14_1613,009,256,20,5,pedro,Experiment_EEG_version,20,
Nonliving_Things,../experiment_stimuli/bw_bc_bl/Nonliving_Things/Musical_Inst/guitar_21.jpg,Musical_Inst,0,guitar,0,75,75,36,340.067731909,V_nV,2,340.072504773,341.410564321,1,2,2.00458094548,343.435684262,3,0,0.661666749511,5,7.0,32,bw,99.7795201038,2019_may_14_1613,009,256,20,5,pedro,Experiment_EEG_version,20,
Nonliving_Things,../experiment_stimuli/bw_bc_bl/Nonliving_Things/Kitchen_Uten/pot_10.jpg,Kitchen_Uten,0,pot,0,76,76,66,345.830267501,V_nV,2,345.835026745,347.153033219,1,2,1.69391078182,348.867501632,3,0,0.641625190852,5,6.0,32,bw,99.7795201038,2019_may_14_1613,009,256,20,5,pedro,Experiment_EEG_version,20,
Living_Things,../experiment_stimuli/bw_bc_bl/Living_Things/Animals/turtle_14.jpg,Animals,0,turtle,0,77,77,90,351.242017726,nV_V,2,351.246971776,352.544759524,1,2,0.902190233232,353.467488268,1,1,0.150546926656,5,6.0,32,bw,99.7795201038,2019_may_14_1613,009,256,20,5,pedro,Experiment_EEG_version,20,
Living_Things,../experiment_stimuli/bw_bc_bl/Living_Things/Animals/giraffe_19.jpg,Animals,0,giraffe,0,78,78,32,355.350954621,V_nV,1,355.357264323,356.673727447,1,1,1.38323559955,358.077530252,2,0,0.411124510574,5,6.5,32,bw,99.7795201038,2019_may_14_1613,009,256,20,5,pedro,Experiment_EEG_version,20,
Nonliving_Things,../experiment_stimuli/bw_bc_bl/Nonliving_Things/Vehicles/motorbike_6.jpg,Vehicles,0,motorbike,0,79,79,54,360.221567934,V_nV,2,360.229317424,361.534308987,0,1,4.60022541496,366.155088476,1,1,0.371030017093,5,6.5,32,bw,99.7795201038,2019_may_14_1613,009,256,20,5,pedro,Experiment_EEG_version,20,
Nonliving_Things,../experiment_stimuli/bw_bc_bl/Nonliving_Things/Furniture/rocking-chair_5.jpg,Furniture,0,rocking-chair,0,80,80,69,368.259007878,nV_V,1,368.263892135,369.57176575,1,1,1.56362723053,371.155980363,1,1,0.160582015989,5,6.0,32,bw,99.7795201038,2019_may_14_1613,009,256,20,5,pedro,Experiment_EEG_version,20,
Nonliving_Things,../experiment_stimuli/bw_bc_bl/Nonliving_Things/Furniture/bedside-table_26.jpg,Furniture,0,bedside-table,0,81,81,6,373.049423032,V_nV,2,373.054185365,374.402269409,1,2,1.24293881183,375.665768836,3,0,0.170605970197,5,6.5,32,bw,99.7795201038,2019_may_14_1613,009,256,20,5,pedro,Experiment_EEG_version,20,
Living_Things,../experiment_stimuli/bw_bc_bl/Living_Things/Marine_creatures/shark_6.jpg,Marine_creatures,0,shark,0,82,82,75,377.569245921,nV_V,2,377.575529996,378.89202336,1,2,0.992382904282,379.905002642,2,0,0.49128795648,5,6.5,32,bw,99.7795201038,2019_may_14_1613,009,256,20,5,pedro,Experiment_EEG_version,20,
Living_Things,../experiment_stimuli/bw_bc_bl/Living_Things/Birds/kiwi_10.jpg,Birds,0,kiwi,0,83,83,44,382.129162515,V_nV,1,382.134019415,383.441919879,0,2,1.1226661097,384.58514145,2,0,0.721789001196,5,8.0,32,bw,99.7795201038,2019_may_14_1613,009,256,20,5,pedro,Experiment_EEG_version,20,
Nonliving_Things,../experiment_stimuli/bw_bc_bl/Nonliving_Things/Musical_Inst/piano__14.jpg,Musical_Inst,0,piano,0,84,84,62,387.049856877,V_nV,2,387.054617817,388.362613844,1,2,2.51569456147,390.898871291,2,0,0.952293094597,5,7.5,32,bw,99.7795201038,2019_may_14_1613,009,256,20,5,pedro,Experiment_EEG_version,20,
Living_Things,../experiment_stimuli/bw_bc_bl/Living_Things/Birds/pelican_7.jpg,Birds,0,pelican,0,85,85,60,393.584059794,V_nV,1,393.588871353,394.886808373,1,1,0.912209890666,395.819551504,3,0,0.160419018357,5,7.0,32,bw,99.7795201038,2019_may_14_1613,009,256,20,5,pedro,Experiment_EEG_version,20,
Nonliving_Things,../experiment_stimuli/bw_bc_bl/Nonliving_Things/Vehicles/bus_6.jpg,Vehicles,0,bus,0,86,86,9,397.713036954,nV_V,1,397.719429009,398.995731471,1,1,1.0224750333,400.0387593,3,0,0.20067750942,5,6.0,32,bw,99.7795201038,2019_may_14_1613,009,256,20,5,pedro,Experiment_EEG_version,20,
Living_Things,../experiment_stimuli/bw_bc_bl/Living_Things/Birds/sparrow_14.jpg,Birds,0,sparrow,0,87,87,79,401.97229818,V_nV,1,401.97867989,403.224918508,1,1,0.421146979963,403.66663155,1,1,0.120479492587,5,7.0,32,bw,99.7795201038,2019_may_14_1613,009,256,20,5,pedro,Experiment_EEG_version,20,
Living_Things,../experiment_stimuli/bw_bc_bl/Living_Things/Insects/butterfly_19.jpg,Insects,0,butterfly,0,88,88,10,405.520013823,V_nV,1,405.526452772,406.802695103,1,1,1.93443079584,408.757690924,3,0,0.862097683537,5,6.0,32,bw,99.7795201038,2019_may_14_1613,009,256,20,5,pedro,Experiment_EEG_version,20,
Nonliving_Things,../experiment_stimuli/bw_bc_bl/Nonliving_Things/Furniture/bed_7.jpg,Furniture,0,bed,0,89,89,5,411.352687275,V_nV,2,411.357451902,412.615334643,0,1,3.55796194286,416.193851318,1,1,0.170592601935,5,6.0,32,bw,99.7795201038,2019_may_14_1613,009,256,20,5,pedro,Experiment_EEG_version,20,
Nonliving_Things,../experiment_stimuli/bw_bc_bl/Nonliving_Things/Furniture/lectern_19.jpg,Furniture,0,lectern,0,90,90,47,418.097347662,nV_V,1,418.10212188,419.370020312,1,1,1.63378239871,421.024362619,1,1,0.711756381963,5,7.5,32,bw,99.7795201038,2019_may_14_1613,009,256,20,5,pedro,Experiment_EEG_version,20,
Nonliving_Things,../experiment_stimuli/bw_bc_bl/Nonliving_Things/Furniture/armchair_19.jpg,Furniture,0,armchair,0,91,91,2,423.469030706,V_nV,2,423.473682436,424.761741226,1,2,1.01243480475,425.794733958,1,1,0.371049437847,5,6.0,32,bw,99.7795201038,2019_may_14_1613,009,256,20,5,pedro,Experiment_EEG_version,20,
Living_Things,../experiment_stimuli/bw_bc_bl/Living_Things/Birds/barn-owl_19.jpg,Birds,0,barn-owl,0,92,92,4,427.898649177,V_nV,1,427.903447296,429.231463513,1,1,0.210710591346,429.46273872,2,0,0.571469868359,5,6.5,32,bw,99.7795201038,2019_may_14_1613,009,256,20,5,pedro,Experiment_EEG_version,20,
Living_Things,../experiment_stimuli/bw_bc_bl/Living_Things/Animals/hippopotamus_10.jpg,Animals,0,hippopotamus,0,93,93,39,431.767063681,nV_V,2,431.773449232,433.079816553,0,1,1.19281221787,434.293194371,1,1,0.461223259277,5,7.5,32,bw,99.7795201038,2019_may_14_1613,009,256,20,5,pedro,Experiment_EEG_version,20,
Living_Things,../experiment_stimuli/bw_bc_bl/Living_Things/Birds/raven_6.jpg,Birds,0,raven,0,94,94,67,436.497349801,nV_V,2,436.502034899,437.840178832,0,1,0.601542858698,438.46227266,1,1,0.671681459644,5,6.0,32,bw,99.7795201038,2019_may_14_1613,009,256,20,5,pedro,Experiment_EEG_version,20,
Nonliving_Things,../experiment_stimuli/bw_bc_bl/Nonliving_Things/Furniture/lamp_1.jpg,Furniture,0,lamp,0,95,95,46,440.876862696,V_nV,2,440.881551862,442.239728903,1,2,1.28301579459,443.543317625,3,0,0.371033535863,5,6.5,32,bw,99.7795201038,2019_may_14_1613,009,256,20,5,pedro,Experiment_EEG_version,20,
