category,probe_path,subcategory,fixation_duration,label,trials.thisRepN,trials.thisTrialN,trials.thisN,trials.thisIndex,image_onset_time,response_window,correctAns,probe_onset,discrim_resptime,response.corr,response.keys,response.rt,visible_resptime,visible.keys,visible.corr,visible.rt,probeFrames,jitter2,n_square,experiment_color,frameRate,date,session,image_size,premask_dur,probeFrames,participant,expName,postmask_dur,
Nonliving_Things,../experiment_stimuli/bw_bc_bl/Nonliving_Things/Musical_Inst/guitar_7.jpg,Musical_Inst,0,guitar,0,0,0,36,3.73564792378,V_nV,2,3.77263169596,5.03838881804,0,1,0.701762586366,5.7709887051,1,1,0.761873166077,5,6.0,32,bw,99.7825392246,2019_jul_23_1418,011,256,20,5,out,Experiment_EEG_version,20,
Living_Things,../experiment_stimuli/bw_bc_bl/Living_Things/Birds/ostrich_24.jpg,Birds,0,ostrich,0,1,1,56,8.26550706895,nV_V,2,8.27753143618,9.55822874745,1,2,2.81636267761,12.3951331931,2,0,1.34314628365,5,6.0,32,bw,99.7825392246,2019_jul_23_1418,011,256,20,5,out,Experiment_EEG_version,20,
Nonliving_Things,../experiment_stimuli/bw_bc_bl/Nonliving_Things/Musical_Inst/saxophone_24.jpg,Musical_Inst,0,saxophone,0,2,2,72,15.4712034795,V_nV,2,15.4897793443,16.7639211207,0,1,1.05252829986,17.837015403,1,1,0.811837659683,5,6.0,32,bw,99.7825392246,2019_jul_23_1418,011,256,20,5,out,Experiment_EEG_version,20,
Nonliving_Things,../experiment_stimuli/bw_bc_bl/Nonliving_Things/Vehicles/van_9.jpg,Vehicles,0,van,0,3,3,91,20.3818867858,nV_V,1,20.4005695102,21.7046752204,1,1,1.40328101348,23.1285079909,2,0,1.03247723682,5,6.0,32,bw,99.7825392246,2019_jul_23_1418,011,256,20,5,out,Experiment_EEG_version,20,
Living_Things,../experiment_stimuli/bw_bc_bl/Living_Things/Birds/barn-owl_16.jpg,Birds,0,barn-owl,0,4,4,4,25.8939024489,nV_V,2,25.9267780171,27.2166900341,1,2,0.601530982647,27.8387765437,1,1,0.771904299036,5,6.5,32,bw,99.7825392246,2019_jul_23_1418,011,256,20,5,out,Experiment_EEG_version,20,
Nonliving_Things,../experiment_stimuli/bw_bc_bl/Nonliving_Things/Kitchen_Uten/saucepan_13.jpg,Kitchen_Uten,0,saucepan,0,5,5,71,30.3435850153,V_nV,2,30.3775750604,31.7064462374,1,2,5.03119156836,36.7582099647,1,1,0.591510496102,5,8.0,32,bw,99.7825392246,2019_jul_23_1418,011,256,20,5,out,Experiment_EEG_version,20,
Living_Things,../experiment_stimuli/bw_bc_bl/Living_Things/Birds/seagull_23.jpg,Birds,0,seagull,0,6,6,74,39.0826068511,nV_V,2,39.1035377132,40.4554977478,0,1,1.9344326132,42.4104958693,1,1,0.310893935151,5,8.0,32,bw,99.7825392246,2019_jul_23_1418,011,256,20,5,out,Experiment_EEG_version,20,
Nonliving_Things,../experiment_stimuli/bw_bc_bl/Nonliving_Things/Tools/hammer_15.jpg,Tools,0,hammer,0,7,7,37,44.4543052358,nV_V,1,44.47545749,45.8472383232,1,1,0.561454634648,46.429242895,1,1,0.260798713658,5,7.0,32,bw,99.7825392246,2019_jul_23_1418,011,256,20,5,out,Experiment_EEG_version,20,
Living_Things,../experiment_stimuli/bw_bc_bl/Living_Things/Birds/owl_22.jpg,Birds,0,owl,0,8,8,57,48.4229510929,V_nV,1,48.4390347251,49.8459456917,1,1,0.621577868704,50.4880792419,2,0,0.671681492124,5,6.5,32,bw,99.7825392246,2019_jul_23_1418,011,256,20,5,out,Experiment_EEG_version,20,
Nonliving_Things,../experiment_stimuli/bw_bc_bl/Nonliving_Things/Musical_Inst/drum_15.jpg,Musical_Inst,0,drum,0,9,9,25,52.8926775679,V_nV,2,52.9220644217,54.3156791627,1,2,1.76406779233,56.1002896824,1,1,0.260785450693,5,6.0,32,bw,99.7825392246,2019_jul_23_1418,011,256,20,5,out,Experiment_EEG_version,20,
Nonliving_Things,../experiment_stimuli/bw_bc_bl/Nonliving_Things/Furniture/sofa_11.jpg,Furniture,0,sofa,0,10,10,78,58.0940020308,nV_V,1,58.1100442004,59.5170080317,1,1,6.29393052775,65.8314742334,2,0,0.761891598348,5,7.0,32,bw,99.7825392246,2019_jul_23_1418,011,256,20,5,out,Experiment_EEG_version,20,
Living_Things,../experiment_stimuli/bw_bc_bl/Living_Things/Animals/horse_10.jpg,Animals,0,horse,0,11,11,40,68.3262823196,V_nV,1,68.3405919671,69.7392614475,1,1,0.932254697196,70.6920699272,3,0,0.501328457147,5,6.0,32,bw,99.7825392246,2019_jul_23_1418,011,256,20,5,out,Experiment_EEG_version,20,
Nonliving_Things,../experiment_stimuli/bw_bc_bl/Nonliving_Things/Kitchen_Uten/frying-pan_16.jpg,Kitchen_Uten,0,frying-pan,0,12,12,31,72.9263027296,nV_V,1,72.9433268444,74.3192319712,1,1,1.37321462249,75.7130182297,2,0,0.571461230516,5,6.5,32,bw,99.7825392246,2019_jul_23_1418,011,256,20,5,out,Experiment_EEG_version,20,
Nonliving_Things,../experiment_stimuli/bw_bc_bl/Nonliving_Things/Kitchen_Uten/small-saucepan_3.jpg,Kitchen_Uten,0,small-saucepan,0,13,13,77,78.017386877,nV_V,1,78.0430729957,79.4103222569,1,1,0.531390123069,79.9622670128,3,0,0.350985384081,5,6.0,32,bw,99.7825392246,2019_jul_23_1418,011,256,20,5,out,Experiment_EEG_version,20,
Living_Things,../experiment_stimuli/bw_bc_bl/Living_Things/Marine_creatures/sperm-whale_20.jpg,Marine_creatures,0,sperm-whale,0,14,14,80,82.0461572125,V_nV,1,82.0608351412,83.3990087523,1,1,0.691795979161,84.1113616009,3,0,0.551429938059,5,8.0,32,bw,99.7825392246,2019_jul_23_1418,011,256,20,5,out,Experiment_EEG_version,20,
Nonliving_Things,../experiment_stimuli/bw_bc_bl/Nonliving_Things/Kitchen_Uten/coking-pot_21.jpg,Kitchen_Uten,0,coking-pot,0,15,15,18,86.3956235843,V_nV,2,86.4268341139,87.7284354866,1,2,0.55143261468,88.3004275979,2,0,0.391088506207,5,6.5,32,bw,99.7825392246,2019_jul_23_1418,011,256,20,5,out,Experiment_EEG_version,20,
Nonliving_Things,../experiment_stimuli/bw_bc_bl/Nonliving_Things/Vehicles/tractor_18.jpg,Vehicles,0,tractor,0,16,16,86,90.4243987654,V_nV,2,90.4371837447,91.7271455056,1,2,0.48130310094,92.2289961376,3,0,0.571462572552,5,7.5,32,bw,99.7825392246,2019_jul_23_1418,011,256,20,5,out,Experiment_EEG_version,20,
Nonliving_Things,../experiment_stimuli/bw_bc_bl/Nonliving_Things/Furniture/couch_13.jpg,Furniture,0,couch,0,17,17,19,94.5333453109,V_nV,2,94.5528179891,95.8260696623,1,2,0.64162569819,96.4882480651,1,1,0.291008156259,5,6.0,32,bw,99.7825392246,2019_jul_23_1418,011,256,20,5,out,Experiment_EEG_version,20,
Nonliving_Things,../experiment_stimuli/bw_bc_bl/Nonliving_Things/Furniture/bedside-table_5.jpg,Furniture,0,bedside-table,0,18,18,6,98.5120199593,V_nV,2,98.5171763138,99.8247737042,1,2,0.521362738218,100.36668541,1,1,0.351001335308,5,6.5,32,bw,99.7825392246,2019_jul_23_1418,011,256,20,5,out,Experiment_EEG_version,20,
Nonliving_Things,../experiment_stimuli/bw_bc_bl/Nonliving_Things/Vehicles/ship_11.jpg,Vehicles,0,ship,0,19,19,76,102.450592899,V_nV,2,102.46827722,103.803438807,1,2,0.761885391548,104.585881136,3,0,0.210674684495,5,7.0,32,bw,99.7825392246,2019_jul_23_1418,011,256,20,5,out,Experiment_EEG_version,20,
Nonliving_Things,../experiment_stimuli/bw_bc_bl/Nonliving_Things/Furniture/chair_15.jpg,Furniture,0,chair,0,20,20,15,106.529493395,nV_V,1,106.546587952,107.862276286,1,1,0.671691127587,108.554530471,1,1,0.371042853221,5,8.0,32,bw,99.7825392246,2019_jul_23_1418,011,256,20,5,out,Experiment_EEG_version,20,
Living_Things,../experiment_stimuli/bw_bc_bl/Living_Things/Marine_creatures/killer-whale_7.jpg,Marine_creatures,0,killer-whale,0,21,21,43,110.658466214,nV_V,2,110.68072916,112.011308382,1,2,1.4133041692,113.445160071,3,0,0.240746473894,5,6.0,32,bw,99.7825392246,2019_jul_23_1418,011,256,20,5,out,Experiment_EEG_version,20,
Living_Things,../experiment_stimuli/bw_bc_bl/Living_Things/Birds/pelican_2.jpg,Birds,0,pelican,0,22,22,60,115.418828744,V_nV,1,115.437498413,116.751630334,1,1,0.691569902468,117.463782625,3,0,0.300877377391,5,7.5,32,bw,99.7825392246,2019_jul_23_1418,011,256,20,5,out,Experiment_EEG_version,20,
Living_Things,../experiment_stimuli/bw_bc_bl/Living_Things/Animals/cow_22.jpg,Animals,0,cow,0,23,23,20,119.497707267,nV_V,2,119.5299713,120.810469832,1,2,0.982387102209,121.813407014,3,0,0.280829163734,5,7.5,32,bw,99.7825392246,2019_jul_23_1418,011,256,20,5,out,Experiment_EEG_version,20,
Living_Things,../experiment_stimuli/bw_bc_bl/Living_Things/Animals/tiger_4.jpg,Animals,0,tiger,0,24,24,84,123.827149204,nV_V,2,123.843447562,125.099809981,1,2,0.872121256776,125.992523294,1,1,0.491290546488,5,7.5,32,bw,99.7825392246,2019_jul_23_1418,011,256,20,5,out,Experiment_EEG_version,20,
Nonliving_Things,../experiment_stimuli/bw_bc_bl/Nonliving_Things/Buildings/granary_3.jpg,Buildings,0,granary,0,25,25,35,128.216713874,nV_V,1,128.232943667,129.499396168,1,1,0.671692281496,130.19164883,1,1,0.34096078109,5,6.5,32,bw,99.7825392246,2019_jul_23_1418,011,256,20,5,out,Experiment_EEG_version,20,
Nonliving_Things,../experiment_stimuli/bw_bc_bl/Nonliving_Things/Buildings/factory_26.jpg,Buildings,0,factory,0,26,26,28,132.265509224,V_nV,2,132.277896508,133.548208394,0,1,0.751860567369,134.330640219,2,0,1.03246713197,5,6.5,32,bw,99.7825392246,2019_jul_23_1418,011,256,20,5,out,Experiment_EEG_version,20,
Nonliving_Things,../experiment_stimuli/bw_bc_bl/Nonliving_Things/Furniture/lamp_11.jpg,Furniture,0,lamp,0,27,27,46,137.096032282,nV_V,1,137.118937706,138.378722866,1,1,1.32312614936,139.722413045,1,1,0.250766186044,5,7.0,32,bw,99.7825392246,2019_jul_23_1418,011,256,20,5,out,Experiment_EEG_version,20,
Nonliving_Things,../experiment_stimuli/bw_bc_bl/Nonliving_Things/Buildings/house_2.jpg,Buildings,0,house,0,28,28,41,141.706071435,V_nV,2,141.721391943,143.018826962,1,2,0.621578015387,143.660952726,2,0,0.671690018382,5,7.0,32,bw,99.7825392246,2019_jul_23_1418,011,256,20,5,out,Experiment_EEG_version,20,
Nonliving_Things,../experiment_stimuli/bw_bc_bl/Nonliving_Things/Tools/axe_13.jpg,Tools,0,axe,0,29,29,3,146.065559954,V_nV,2,146.080752972,147.368306104,1,2,0.862113905605,148.250985913,2,0,0.651638027281,5,6.5,32,bw,99.7825392246,2019_jul_23_1418,011,256,20,5,out,Experiment_EEG_version,20,
Nonliving_Things,../experiment_stimuli/bw_bc_bl/Nonliving_Things/Furniture/bed_10.jpg,Furniture,0,bed,0,30,30,5,150.635530089,nV_V,1,150.67241708,151.948276647,1,1,0.611569446512,152.580387699,1,1,0.220702482853,5,6.5,32,bw,99.7825392246,2019_jul_23_1418,011,256,20,5,out,Experiment_EEG_version,20,
Living_Things,../experiment_stimuli/bw_bc_bl/Living_Things/Marine_creatures/lobster_22.jpg,Marine_creatures,0,lobster,0,31,31,49,154.534004426,V_nV,1,154.564798156,155.856793568,0,2,0.781943176407,156.659306259,1,1,0.220695652068,5,6.0,32,bw,99.7825392246,2019_jul_23_1418,011,256,20,5,out,Experiment_EEG_version,20,
Nonliving_Things,../experiment_stimuli/bw_bc_bl/Nonliving_Things/Vehicles/bus_10.jpg,Vehicles,0,bus,0,32,32,9,158.612888456,V_nV,2,158.630756941,159.935669616,1,2,0.78193644667,160.738166463,2,0,0.170587126166,5,6.0,32,bw,99.7825392246,2019_jul_23_1418,011,256,20,5,out,Experiment_EEG_version,20,
Living_Things,../experiment_stimuli/bw_bc_bl/Living_Things/Marine_creatures/pomfret_5.jpg,Marine_creatures,0,pomfret,0,33,33,65,162.641661427,V_nV,1,162.653738478,163.944404915,0,2,0.711777565069,164.676759147,1,1,0.240872901864,5,6.0,32,bw,99.7825392246,2019_jul_23_1418,011,256,20,5,out,Experiment_EEG_version,20,
Living_Things,../experiment_stimuli/bw_bc_bl/Living_Things/Animals/armadillo_5.jpg,Animals,0,armadillo,0,34,34,1,166.650392045,nV_V,2,166.680853918,167.983190467,1,2,1.56362503208,169.567377323,1,1,0.431163725909,5,6.5,32,bw,99.7825392246,2019_jul_23_1418,011,256,20,5,out,Experiment_EEG_version,20,
Living_Things,../experiment_stimuli/bw_bc_bl/Living_Things/Birds/sparrow_1.jpg,Birds,0,sparrow,0,35,35,79,171.7314528,V_nV,1,171.75313683,173.064254845,1,1,1.12268185429,174.207496618,3,0,0.320917349774,5,6.0,32,bw,99.7825392246,2019_jul_23_1418,011,256,20,5,out,Experiment_EEG_version,20,
Nonliving_Things,../experiment_stimuli/bw_bc_bl/Nonliving_Things/Furniture/wardrobe_14.jpg,Furniture,0,wardrobe,0,36,36,93,176.261331775,V_nV,2,176.275898209,177.564054771,1,2,2.18498448934,179.769582356,2,0,0.451208529063,5,7.0,32,bw,99.7825392246,2019_jul_23_1418,011,256,20,5,out,Experiment_EEG_version,20,
Living_Things,../experiment_stimuli/bw_bc_bl/Living_Things/Birds/goose_17.jpg,Birds,0,goose,0,37,37,34,181.953709682,V_nV,1,181.973825018,183.246430033,1,1,0.842057962902,184.109060388,3,0,0.310899844859,5,6.0,32,bw,99.7825392246,2019_jul_23_1418,011,256,20,5,out,Experiment_EEG_version,20,
Living_Things,../experiment_stimuli/bw_bc_bl/Living_Things/Animals/lynx_22.jpg,Animals,0,lynx,0,38,38,50,186.15287166,nV_V,2,186.180957085,187.435552015,0,1,0.83203716483,188.288152451,1,1,0.210679800715,5,6.0,32,bw,99.7825392246,2019_jul_23_1418,011,256,20,5,out,Experiment_EEG_version,20,
Living_Things,../experiment_stimuli/bw_bc_bl/Living_Things/Marine_creatures/manatee_26.jpg,Marine_creatures,0,manatee,0,39,39,52,190.231741544,nV_V,2,190.254536153,191.52445805,1,2,0.661674637347,192.20668179,2,0,0.541403620504,5,6.0,32,bw,99.7825392246,2019_jul_23_1418,011,256,20,5,out,Experiment_EEG_version,20,
Living_Things,../experiment_stimuli/bw_bc_bl/Living_Things/Animals/hippopotamus_12.jpg,Animals,0,hippopotamus,0,40,40,39,194.480990023,nV_V,2,194.500869046,195.763687816,1,2,1.03247177089,196.816705457,2,0,0.421142630745,5,6.0,32,bw,99.7825392246,2019_jul_23_1418,011,256,20,5,out,Experiment_EEG_version,20,
Nonliving_Things,../experiment_stimuli/bw_bc_bl/Nonliving_Things/Furniture/table_3.jpg,Furniture,0,table,0,41,41,81,198.970773399,nV_V,1,198.984768629,200.243444417,1,1,0.691737231333,200.955711898,2,0,0.360854277853,5,6.0,32,bw,99.7825392246,2019_jul_23_1418,011,256,20,5,out,Experiment_EEG_version,20,
Nonliving_Things,../experiment_stimuli/bw_bc_bl/Nonliving_Things/Furniture/filling-cabinet_6.jpg,Furniture,0,filling-cabinet,0,42,42,29,203.049654515,V_nV,2,203.05472948,204.302289647,1,2,0.822017328814,205.144856405,1,1,0.24078123318,5,7.0,32,bw,99.7825392246,2019_jul_23_1418,011,256,20,5,out,Experiment_EEG_version,20,
Living_Things,../experiment_stimuli/bw_bc_bl/Living_Things/Animals/rhino_18.jpg,Animals,0,rhino,0,43,43,68,207.118509281,V_nV,1,207.134688796,208.401204613,1,1,0.751862920355,209.173631696,3,0,1.03250470292,5,6.0,32,bw,99.7825392246,2019_jul_23_1418,011,256,20,5,out,Experiment_EEG_version,20,
Nonliving_Things,../experiment_stimuli/bw_bc_bl/Nonliving_Things/Vehicles/motorbike_17.jpg,Vehicles,0,motorbike,0,44,44,54,211.939007165,nV_V,1,211.955268295,213.201658163,1,1,0.641618694644,213.863833223,1,1,0.210682364646,5,7.5,32,bw,99.7825392246,2019_jul_23_1418,011,256,20,5,out,Experiment_EEG_version,20,
Living_Things,../experiment_stimuli/bw_bc_bl/Living_Things/Birds/duck_8.jpg,Birds,0,duck,0,45,45,26,215.807432531,V_nV,1,215.826546999,217.080104448,1,1,0.761882102117,217.86254939,2,0,0.28082928434,5,6.0,32,bw,99.7825392246,2019_jul_23_1418,011,256,20,5,out,Experiment_EEG_version,20,
Nonliving_Things,../experiment_stimuli/bw_bc_bl/Nonliving_Things/Buildings/castle_2.jpg,Buildings,0,castle,0,46,46,12,219.876295335,nV_V,1,219.892894311,221.138940501,0,2,0.862098480575,222.021635006,2,0,0.521358215716,5,6.0,32,bw,99.7825392246,2019_jul_23_1418,011,256,20,5,out,Experiment_EEG_version,20,
Living_Things,../experiment_stimuli/bw_bc_bl/Living_Things/Marine_creatures/whale_20.jpg,Marine_creatures,0,whale,0,47,47,94,224.275882973,nV_V,2,224.294858679,225.528511872,0,1,1.11265057512,226.661721662,1,1,0.371029545087,5,7.5,32,bw,99.7825392246,2019_jul_23_1418,011,256,20,5,out,Experiment_EEG_version,20,
Nonliving_Things,../experiment_stimuli/bw_bc_bl/Nonliving_Things/Kitchen_Uten/teapot_9.jpg,Kitchen_Uten,0,teapot,0,48,48,83,228.765646514,nV_V,1,228.777623943,230.018288819,0,2,0.651647256222,230.690493779,1,1,0.481265259441,5,6.0,32,bw,99.7825392246,2019_jul_23_1418,011,256,20,5,out,Experiment_EEG_version,20,
Living_Things,../experiment_stimuli/bw_bc_bl/Living_Things/Birds/partridge_4.jpg,Birds,0,partridge,0,49,49,59,232.904663282,V_nV,1,232.931940678,234.19738216,1,1,0.631601110566,234.84953858,1,1,0.2307164995,5,6.0,32,bw,99.7825392246,2019_jul_23_1418,011,256,20,5,out,Experiment_EEG_version,20,
Nonliving_Things,../experiment_stimuli/bw_bc_bl/Nonliving_Things/Buildings/cathedral_11.jpg,Buildings,0,cathedral,0,50,50,14,236.813170425,V_nV,2,236.830248775,238.115914105,1,2,0.591510022525,238.738018596,1,1,0.320929830894,5,6.0,32,bw,99.7825392246,2019_jul_23_1418,011,256,20,5,out,Experiment_EEG_version,20,
Living_Things,../experiment_stimuli/bw_bc_bl/Living_Things/Animals/lioness_9.jpg,Animals,0,lioness,0,51,51,48,240.79189167,nV_V,2,240.827617053,242.134663191,0,1,1.20352676464,243.35876758,1,1,0.200664747041,5,6.5,32,bw,99.7825392246,2019_jul_23_1418,011,256,20,5,out,Experiment_EEG_version,20,
Nonliving_Things,../experiment_stimuli/bw_bc_bl/Nonliving_Things/Furniture/lectern_7.jpg,Furniture,0,lectern,0,52,52,47,245.291635146,V_nV,2,245.309036809,246.624438781,1,2,0.691731160507,247.336745927,2,0,0.611563671846,5,6.0,32,bw,99.7825392246,2019_jul_23_1418,011,256,20,5,out,Experiment_EEG_version,20,
Living_Things,../experiment_stimuli/bw_bc_bl/Living_Things/Birds/magpie_25.jpg,Birds,0,magpie,0,53,53,51,249.681197053,V_nV,1,249.701873151,251.003985638,0,2,1.29304090841,252.317607149,1,1,0.310746594332,5,6.5,32,bw,99.7825392246,2019_jul_23_1418,011,256,20,5,out,Experiment_EEG_version,20,
Living_Things,../experiment_stimuli/bw_bc_bl/Living_Things/Animals/turtle_1.jpg,Animals,0,turtle,0,54,54,90,254.361388294,V_nV,1,254.379708748,255.694196403,1,1,0.491298437584,256.206065484,1,1,0.290863195434,5,7.5,32,bw,99.7825392246,2019_jul_23_1418,011,256,20,5,out,Experiment_EEG_version,20,
Living_Things,../experiment_stimuli/bw_bc_bl/Living_Things/Birds/hen_16.jpg,Birds,0,hen,0,55,55,38,258.229820088,nV_V,2,258.247875086,259.592682048,1,2,0.791952203959,260.405170163,2,0,0.250762193929,5,7.0,32,bw,99.7825392246,2019_jul_23_1418,011,256,20,5,out,Experiment_EEG_version,20,
Living_Things,../experiment_stimuli/bw_bc_bl/Living_Things/Marine_creatures/narwhal_4.jpg,Marine_creatures,0,narwhal,0,56,56,55,262.388872513,V_nV,1,262.404725099,263.741716004,1,1,0.601548993494,264.363827063,1,1,0.852096039336,5,6.0,32,bw,99.7825392246,2019_jul_23_1418,011,256,20,5,out,Experiment_EEG_version,20,
Nonliving_Things,../experiment_stimuli/bw_bc_bl/Nonliving_Things/Kitchen_Uten/fondue_14.jpg,Kitchen_Uten,0,fondue,0,57,57,30,266.948794888,nV_V,1,266.963999048,268.331716,0,2,1.83422558056,270.186494833,1,1,0.481265612878,5,6.0,32,bw,99.7825392246,2019_jul_23_1418,011,256,20,5,out,Experiment_EEG_version,20,
Living_Things,../experiment_stimuli/bw_bc_bl/Living_Things/Birds/raven_10.jpg,Birds,0,raven,0,58,58,67,272.40067108,nV_V,2,272.424570166,273.803627793,1,2,1.47345148539,275.297640415,3,0,1.09260320803,5,6.0,32,bw,99.7825392246,2019_jul_23_1418,011,256,20,5,out,Experiment_EEG_version,20,
Nonliving_Things,../experiment_stimuli/bw_bc_bl/Nonliving_Things/Musical_Inst/trumpet_3.jpg,Musical_Inst,0,trumpet,0,59,59,88,278.12313463,nV_V,1,278.152968741,279.506048975,1,1,0.661668803077,280.188279185,1,1,0.671707044356,5,7.0,32,bw,99.7825392246,2019_jul_23_1418,011,256,20,5,out,Experiment_EEG_version,20,
Living_Things,../experiment_stimuli/bw_bc_bl/Living_Things/Birds/goldfinch_20.jpg,Birds,0,goldfinch,0,60,60,33,282.592858579,V_nV,1,282.604313907,283.965758929,1,1,1.09260945208,285.078925856,3,0,0.982361410744,5,6.0,32,bw,99.7825392246,2019_jul_23_1418,011,256,20,5,out,Experiment_EEG_version,20,
Living_Things,../experiment_stimuli/bw_bc_bl/Living_Things/Birds/toucan_16.jpg,Birds,0,toucan,0,61,61,85,287.794190883,nV_V,2,287.812415169,289.157067154,1,2,0.922229826916,290.099853242,2,0,0.651651714928,5,6.0,32,bw,99.7825392246,2019_jul_23_1418,011,256,20,5,out,Experiment_EEG_version,20,
Living_Things,../experiment_stimuli/bw_bc_bl/Living_Things/Birds/hummingbird_25.jpg,Birds,0,hummingbird,0,62,62,42,292.484403234,nV_V,2,292.499070276,293.837257305,1,2,0.801985213067,294.659789345,1,1,0.290858380031,5,6.0,32,bw,99.7825392246,2019_jul_23_1418,011,256,20,5,out,Experiment_EEG_version,20,
Nonliving_Things,../experiment_stimuli/bw_bc_bl/Nonliving_Things/Furniture/Chest-of-drawers_5.jpg,Furniture,0,Chest-of-drawers,0,63,63,0,296.683546623,V_nV,2,296.700827013,298.046422033,1,2,1.14255561493,299.209552987,1,1,0.300878064707,5,6.5,32,bw,99.7825392246,2019_jul_23_1418,011,256,20,5,out,Experiment_EEG_version,20,
Living_Things,../experiment_stimuli/bw_bc_bl/Living_Things/Animals/tapir_23.jpg,Animals,0,tapir,0,64,64,82,301.243484385,V_nV,1,301.25923896,302.636425904,1,1,2.15492572589,304.811902214,3,0,0.73181189457,5,6.0,32,bw,99.7825392246,2019_jul_23_1418,011,256,20,5,out,Experiment_EEG_version,20,
Living_Things,../experiment_stimuli/bw_bc_bl/Living_Things/Marine_creatures/shark_24.jpg,Marine_creatures,0,shark,0,65,65,75,307.276616109,nV_V,2,307.294184074,308.639486511,1,2,0.922232568264,309.592279544,3,0,0.330943047069,5,6.0,32,bw,99.7825392246,2019_jul_23_1418,011,256,20,5,out,Experiment_EEG_version,20,
Nonliving_Things,../experiment_stimuli/bw_bc_bl/Nonliving_Things/Vehicles/train_18.jpg,Vehicles,0,train,0,66,66,87,311.656150473,V_nV,2,311.684974367,313.009000769,1,2,1.37322085537,314.402785054,1,1,0.280827036127,5,7.5,32,bw,99.7825392246,2019_jul_23_1418,011,256,20,5,out,Experiment_EEG_version,20,
Nonliving_Things,../experiment_stimuli/bw_bc_bl/Nonliving_Things/Buildings/palace_4.jpg,Buildings,0,palace,0,67,67,58,316.416534552,nV_V,1,316.43582283,317.769371415,1,1,0.621578658,318.411499669,3,0,0.260796932038,5,7.0,32,bw,99.7825392246,2019_jul_23_1418,011,256,20,5,out,Experiment_EEG_version,20,
Living_Things,../experiment_stimuli/bw_bc_bl/Living_Things/Animals/cat_4.jpg,Animals,0,cat,0,68,68,13,320.405204239,V_nV,1,320.42321341,321.727989331,1,1,0.92224002257,322.670780611,2,0,0.5614496083,5,6.0,32,bw,99.7825392246,2019_jul_23_1418,011,256,20,5,out,Experiment_EEG_version,20,
Living_Things,../experiment_stimuli/bw_bc_bl/Living_Things/Marine_creatures/dolphin_21.jpg,Marine_creatures,0,dolphin,0,69,69,23,324.965133625,V_nV,1,324.979458005,326.277894408,1,1,2.24511918146,328.543567128,2,0,0.531387916766,5,6.0,32,bw,99.7825392246,2019_jul_23_1418,011,256,20,5,out,Experiment_EEG_version,20,
Nonliving_Things,../experiment_stimuli/bw_bc_bl/Nonliving_Things/Musical_Inst/piano__4.jpg,Musical_Inst,0,piano,0,70,70,62,330.807856447,V_nV,2,330.828395294,332.110596566,1,2,0.631603531539,332.762760749,1,1,0.300867674407,5,6.0,32,bw,99.7825392246,2019_jul_23_1418,011,256,20,5,out,Experiment_EEG_version,20,
Nonliving_Things,../experiment_stimuli/bw_bc_bl/Nonliving_Things/Kitchen_Uten/pot_9.jpg,Kitchen_Uten,0,pot,0,71,71,66,334.796554832,nV_V,1,334.835505531,336.159420344,0,2,0.661674956791,336.841649655,1,1,0.310896578245,5,7.0,32,bw,99.7825392246,2019_jul_23_1418,011,256,20,5,out,Experiment_EEG_version,20,
Nonliving_Things,../experiment_stimuli/bw_bc_bl/Nonliving_Things/Furniture/armchair_15.jpg,Furniture,0,armchair,0,72,72,2,338.885449259,V_nV,2,338.89664874,340.248317184,1,2,0.932253381237,341.201119931,1,1,0.280824104324,5,8.0,32,bw,99.7825392246,2019_jul_23_1418,011,256,20,5,out,Experiment_EEG_version,20,
Nonliving_Things,../experiment_stimuli/bw_bc_bl/Nonliving_Things/Buildings/mill_17.jpg,Buildings,0,mill,0,73,73,53,343.214879309,V_nV,2,343.233072873,344.597798195,1,2,0.511338285636,345.129677895,1,1,0.300874460023,5,6.0,32,bw,99.7825392246,2019_jul_23_1418,011,256,20,5,out,Experiment_EEG_version,20,
Nonliving_Things,../experiment_stimuli/bw_bc_bl/Nonliving_Things/Furniture/rocking-chair_16.jpg,Furniture,0,rocking-chair,0,74,74,69,347.163476637,nV_V,1,347.185730037,348.576458061,1,1,1.48345732922,350.080471775,1,1,0.290852544829,5,6.0,32,bw,99.7825392246,2019_jul_23_1418,011,256,20,5,out,Experiment_EEG_version,20,
Living_Things,../experiment_stimuli/bw_bc_bl/Living_Things/Animals/elephant_25.jpg,Animals,0,elephant,0,75,75,27,352.104231894,nV_V,2,352.117846309,353.557298088,1,2,4.70046747429,358.278320856,3,0,0.731836120598,5,6.5,32,bw,99.7825392246,2019_jul_23_1418,011,256,20,5,out,Experiment_EEG_version,20,
Living_Things,../experiment_stimuli/bw_bc_bl/Living_Things/Animals/giraffe_26.jpg,Animals,0,giraffe,0,76,76,32,360.753068545,V_nV,1,360.767324294,362.16604794,1,1,0.531406051479,362.718003936,3,0,0.260793443304,5,6.5,32,bw,99.7825392246,2019_jul_23_1418,011,256,20,5,out,Experiment_EEG_version,20,
Living_Things,../experiment_stimuli/bw_bc_bl/Living_Things/Animals/zebra_15.jpg,Animals,0,zebra,0,77,77,95,364.711702679,nV_V,2,364.732776291,366.094600246,1,2,0.621603800915,366.736753728,3,0,0.240739692468,5,7.5,32,bw,99.7825392246,2019_jul_23_1418,011,256,20,5,out,Experiment_EEG_version,20,
Living_Things,../experiment_stimuli/bw_bc_bl/Living_Things/Birds/pigeon_12.jpg,Birds,0,pigeon,0,78,78,63,368.710429014,nV_V,2,368.741338641,370.073267274,1,2,0.721797532868,370.815619296,3,0,0.27081977902,5,8.0,32,bw,99.7825392246,2019_jul_23_1418,011,256,20,5,out,Experiment_EEG_version,20,
Living_Things,../experiment_stimuli/bw_bc_bl/Living_Things/Birds/kiwi_22.jpg,Birds,0,kiwi,0,79,79,44,372.819354323,nV_V,2,372.834527934,374.152150142,1,2,0.581491723657,374.754184582,3,0,0.230568022933,5,7.0,32,bw,99.7825392246,2019_jul_23_1418,011,256,20,5,out,Experiment_EEG_version,20,
Nonliving_Things,../experiment_stimuli/bw_bc_bl/Nonliving_Things/Kitchen_Uten/cup_15.jpg,Kitchen_Uten,0,cup,0,80,80,22,376.717834287,nV_V,1,376.732728985,378.020571817,1,1,0.751861796249,378.792981885,3,0,0.581491318066,5,7.5,32,bw,99.7825392246,2019_jul_23_1418,011,256,20,5,out,Experiment_EEG_version,20,
Nonliving_Things,../experiment_stimuli/bw_bc_bl/Nonliving_Things/Buildings/church_18.jpg,Buildings,0,church,0,81,81,17,381.107387522,nV_V,1,381.120519509,382.380065363,1,1,2.00459377654,384.405218893,3,0,0.371030856855,5,7.5,32,bw,99.7825392246,2019_jul_23_1418,011,256,20,5,out,Experiment_EEG_version,20,
Nonliving_Things,../experiment_stimuli/bw_bc_bl/Nonliving_Things/Musical_Inst/tuba_2.jpg,Musical_Inst,0,tuba,0,82,82,89,386.5091552,nV_V,1,386.531817863,387.77180472,1,1,1.80416889954,389.596539617,3,0,0.290855409577,5,7.0,32,bw,99.7825392246,2019_jul_23_1418,011,256,20,5,out,Experiment_EEG_version,20,
Living_Things,../experiment_stimuli/bw_bc_bl/Living_Things/Birds/rooster_22.jpg,Birds,0,rooster,0,83,83,70,391.630319219,nV_V,2,391.638423463,392.862906784,1,2,0.852081283927,393.735545377,1,1,0.260795582086,5,6.0,32,bw,99.7825392246,2019_jul_23_1418,011,256,20,5,out,Experiment_EEG_version,20,
Nonliving_Things,../experiment_stimuli/bw_bc_bl/Nonliving_Things/Musical_Inst/violin_15.jpg,Musical_Inst,0,violin,0,84,84,92,395.729235128,V_nV,2,395.749460577,396.991880648,0,1,0.671703954227,397.684154728,1,1,0.260788649786,5,6.0,32,bw,99.7825392246,2019_jul_23_1418,011,256,20,5,out,Experiment_EEG_version,20,
Nonliving_Things,../experiment_stimuli/bw_bc_bl/Nonliving_Things/Vehicles/plane_7.jpg,Vehicles,0,plane,0,85,85,64,399.67783143,V_nV,2,399.694641926,400.990590852,0,1,0.661664393265,401.67281305,1,1,0.210693357047,5,6.0,32,bw,99.7825392246,2019_jul_23_1418,011,256,20,5,out,Experiment_EEG_version,20,
Living_Things,../experiment_stimuli/bw_bc_bl/Living_Things/Birds/penguin_23.jpg,Birds,0,penguin,0,86,86,61,403.616407287,V_nV,1,403.626879964,404.919146997,1,1,0.541404312477,405.481103326,2,0,0.340965341311,5,6.0,32,bw,99.7825392246,2019_jul_23_1418,011,256,20,5,out,Experiment_EEG_version,20,
Living_Things,../experiment_stimuli/bw_bc_bl/Living_Things/Insects/scorpion_11.jpg,Insects,0,scorpion,0,87,87,73,407.554983061,V_nV,1,407.570654885,408.847701657,1,1,1.32294602739,410.191218767,1,1,0.401095920708,5,6.5,32,bw,99.7825392246,2019_jul_23_1418,011,256,20,5,out,Experiment_EEG_version,20,
Living_Things,../experiment_stimuli/bw_bc_bl/Living_Things/Marine_creatures/crab_20.jpg,Marine_creatures,0,crab,0,88,88,21,412.32536804,V_nV,1,412.340756811,413.658178596,0,2,2.10481176758,415.78353994,1,1,0.350986639969,5,7.0,32,bw,99.7825392246,2019_jul_23_1418,011,256,20,5,out,Experiment_EEG_version,20,
Living_Things,../experiment_stimuli/bw_bc_bl/Living_Things/Insects/dragonfly_1.jpg,Insects,0,dragonfly,0,89,89,24,417.867441184,nV_V,2,417.900351587,419.210276268,1,2,0.66167850187,419.892505331,3,0,0.731669431087,5,6.0,32,bw,99.7825392246,2019_jul_23_1418,011,256,20,5,out,Experiment_EEG_version,20,
Living_Things,../experiment_stimuli/bw_bc_bl/Living_Things/Insects/butterfly_15.jpg,Insects,0,butterfly,0,90,90,10,422.35721676,nV_V,2,422.37151505,423.669976182,1,2,0.781769467983,424.472318098,3,0,0.270812545903,5,7.0,32,bw,99.7825392246,2019_jul_23_1418,011,256,20,5,out,Experiment_EEG_version,20,
Living_Things,../experiment_stimuli/bw_bc_bl/Living_Things/Animals/cheetah_8.jpg,Animals,0,cheetah,0,91,91,16,426.476187506,V_nV,1,426.496024493,427.758887706,1,1,0.801811876241,428.581267583,2,0,0.46123776352,5,6.5,32,bw,99.7825392246,2019_jul_23_1418,011,256,20,5,out,Experiment_EEG_version,20,
Nonliving_Things,../experiment_stimuli/bw_bc_bl/Nonliving_Things/Furniture/bookcase_3.jpg,Furniture,0,bookcase,0,92,92,8,430.775547803,nV_V,1,430.795836173,432.048224047,1,1,0.832055502571,432.900838103,1,1,0.260783931706,5,6.0,32,bw,99.7825392246,2019_jul_23_1418,011,256,20,5,out,Experiment_EEG_version,20,
Nonliving_Things,../experiment_stimuli/bw_bc_bl/Nonliving_Things/Vehicles/boat_1.jpg,Vehicles,0,boat,0,93,93,7,434.894523222,nV_V,1,434.909748533,436.197258455,1,1,3.35755281569,439.575380377,1,1,0.32091935724,5,8.0,32,bw,99.7825392246,2019_jul_23_1418,011,256,20,5,out,Experiment_EEG_version,20,
Living_Things,../experiment_stimuli/bw_bc_bl/Living_Things/Insects/ladybird_8.jpg,Insects,0,ladybird,0,94,94,45,441.629198392,V_nV,1,441.64291929,442.951987718,0,2,3.69827879174,446.670817852,1,1,0.320936236996,5,6.0,32,bw,99.7825392246,2019_jul_23_1418,011,256,20,5,out,Experiment_EEG_version,20,
Nonliving_Things,../experiment_stimuli/bw_bc_bl/Nonliving_Things/Vehicles/car_21.jpg,Vehicles,0,car,0,95,95,11,448.724635874,nV_V,1,448.742569325,450.067468616,1,1,1.02245002193,451.110469989,3,0,0.290855319705,5,6.0,32,bw,99.7825392246,2019_jul_23_1418,011,256,20,5,out,Experiment_EEG_version,20,
