category,probe_path,subcategory,fixation_duration,label,trials.thisRepN,trials.thisTrialN,trials.thisN,trials.thisIndex,image_onset_time,response_window,correctAns,probe_onset,discrim_resptime,response.corr,response.keys,response.rt,visible_resptime,visible.keys,visible.corr,visible.rt,probeFrames,jitter2,n_square,experiment_color,frameRate,date,session,image_size,premask_dur,probeFrames,participant,expName,postmask_dur,
Living_Things,../experiment_stimuli/bw_bc_bl/Living_Things/Birds/hen_17.jpg,Birds,0,hen,0,0,0,38,3.71654166072,V_nV,1,3.73730573524,4.99922606512,1,1,1.05235705292,6.08248107391,2,0,0.130554081639,5,8.0,32,bw,99.7823236333,2019_may_28_1614,015,256,20,5,maite,Experiment_EEG_version,20,
Living_Things,../experiment_stimuli/bw_bc_bl/Living_Things/Birds/duck_4.jpg,Birds,0,duck,0,1,1,26,7.94573295699,V_nV,1,7.9505376399,9.208382532,1,1,0.661668979097,9.89071984612,2,0,0.180630597519,5,6.5,32,bw,99.7823236333,2019_may_28_1614,015,256,20,5,maite,Experiment_EEG_version,20,
Nonliving_Things,../experiment_stimuli/bw_bc_bl/Nonliving_Things/Musical_Inst/saxophone_13.jpg,Musical_Inst,0,saxophone,0,2,2,72,11.8041166277,V_nV,2,11.8091610665,13.0567417333,1,2,0.561448113527,13.6387589881,2,0,0.220547901466,5,6.0,32,bw,99.7823236333,2019_may_28_1614,015,256,20,5,maite,Experiment_EEG_version,20,
Living_Things,../experiment_stimuli/bw_bc_bl/Living_Things/Insects/scorpion_3.jpg,Insects,0,scorpion,0,3,3,73,15.5923552501,nV_V,2,15.5982660113,16.8349576197,0,1,1.61373686977,18.4692431239,1,1,0.310897461371,5,6.0,32,bw,99.7823236333,2019_may_28_1614,015,256,20,5,maite,Experiment_EEG_version,20,
Living_Things,../experiment_stimuli/bw_bc_bl/Living_Things/Insects/butterfly_4.jpg,Insects,0,butterfly,0,4,4,10,20.5130553045,V_nV,1,20.5179768056,21.7857198075,1,1,0.491294272244,22.2975633643,3,0,0.26078959601,5,6.0,32,bw,99.7823236333,2019_may_28_1614,015,256,20,5,maite,Experiment_EEG_version,20,
Nonliving_Things,../experiment_stimuli/bw_bc_bl/Nonliving_Things/Musical_Inst/drum_24.jpg,Musical_Inst,0,drum,0,5,5,25,24.2912609733,nV_V,1,24.296026401,25.5438913004,1,1,0.621582924854,26.1860258149,3,0,0.320949741872,5,7.5,32,bw,99.7823236333,2019_may_28_1614,015,256,20,5,maite,Experiment_EEG_version,20,
Nonliving_Things,../experiment_stimuli/bw_bc_bl/Nonliving_Things/Vehicles/ship_21.jpg,Vehicles,0,ship,0,6,6,76,28.2398474687,V_nV,2,28.2452198314,29.472443816,1,2,0.791790280491,30.284778137,2,0,0.210691087879,5,6.0,32,bw,99.7823236333,2019_may_28_1614,015,256,20,5,maite,Experiment_EEG_version,20,
Nonliving_Things,../experiment_stimuli/bw_bc_bl/Nonliving_Things/Buildings/church_9.jpg,Buildings,0,church,0,7,7,17,32.2285151305,nV_V,1,32.234011939,33.4611064328,1,1,0.952301523183,34.4339444551,1,1,0.200662291842,5,6.5,32,bw,99.7823236333,2019_may_28_1614,015,256,20,5,maite,Experiment_EEG_version,20,
Living_Things,../experiment_stimuli/bw_bc_bl/Living_Things/Animals/giraffe_9.jpg,Animals,0,giraffe,0,8,8,32,36.3675274288,nV_V,2,36.3724330275,37.6201380985,1,2,0.581332945032,38.2220666735,2,0,0.441186309559,5,7.0,32,bw,99.7823236333,2019_may_28_1614,015,256,20,5,maite,Experiment_EEG_version,20,
Nonliving_Things,../experiment_stimuli/bw_bc_bl/Nonliving_Things/Furniture/filling-cabinet_25.jpg,Furniture,0,filling-cabinet,0,9,9,29,40.3962807986,V_nV,2,40.4010433992,41.6388751417,1,2,0.491297738394,42.1507316758,2,0,0.230721199419,5,6.0,32,bw,99.7823236333,2019_may_28_1614,015,256,20,5,maite,Experiment_EEG_version,20,
Living_Things,../experiment_stimuli/bw_bc_bl/Living_Things/Marine_creatures/whale_15.jpg,Marine_creatures,0,whale,0,10,10,94,44.1143564298,V_nV,1,44.1192559798,45.3469357735,1,1,0.621580665465,45.9890961032,2,0,0.330945865251,5,6.0,32,bw,99.7823236333,2019_may_28_1614,015,256,20,5,maite,Experiment_EEG_version,20,
Nonliving_Things,../experiment_stimuli/bw_bc_bl/Nonliving_Things/Furniture/table_6.jpg,Furniture,0,table,0,11,11,81,48.0529163545,V_nV,2,48.0576920342,49.2854961983,1,2,0.491296257125,49.7973338305,1,1,0.180617304519,5,6.0,32,bw,99.7823236333,2019_may_28_1614,015,256,20,5,maite,Experiment_EEG_version,20,
Nonliving_Things,../experiment_stimuli/bw_bc_bl/Nonliving_Things/Kitchen_Uten/saucepan_2.jpg,Kitchen_Uten,0,saucepan,0,12,12,71,51.7108733014,nV_V,1,51.7156681311,52.9534729456,1,1,0.651642705081,53.6256670104,3,0,0.180664559361,5,6.0,32,bw,99.7823236333,2019_may_28_1614,015,256,20,5,maite,Experiment_EEG_version,20,
Living_Things,../experiment_stimuli/bw_bc_bl/Living_Things/Animals/cow_4.jpg,Animals,0,cow,0,13,13,20,55.5391888351,V_nV,1,55.5445954681,56.77177816,0,2,0.701755284565,57.4940845824,1,1,0.621600635117,5,6.0,32,bw,99.7823236333,2019_may_28_1614,015,256,20,5,maite,Experiment_EEG_version,20,
Living_Things,../experiment_stimuli/bw_bc_bl/Living_Things/Marine_creatures/lobster_25.jpg,Marine_creatures,0,lobster,0,14,14,49,59.848555923,nV_V,2,59.85348648,61.0911645629,1,2,0.64162386721,61.7633640489,1,1,0.65164425387,5,6.0,32,bw,99.7823236333,2019_may_28_1614,015,256,20,5,maite,Experiment_EEG_version,20,
Living_Things,../experiment_stimuli/bw_bc_bl/Living_Things/Birds/magpie_2.jpg,Birds,0,magpie,0,15,15,51,64.1479198271,V_nV,1,64.1528696131,65.4205771571,1,1,0.541426693555,65.9825617704,2,0,0.180617368082,5,7.5,32,bw,99.7823236333,2019_may_28_1614,015,256,20,5,maite,Experiment_EEG_version,20,
Living_Things,../experiment_stimuli/bw_bc_bl/Living_Things/Marine_creatures/manatee_7.jpg,Marine_creatures,0,manatee,0,16,16,52,67.8960548886,nV_V,2,67.9008019709,69.15869799,1,2,0.611561170314,69.7908020988,2,0,0.220701914513,5,6.5,32,bw,99.7823236333,2019_may_28_1614,015,256,20,5,maite,Experiment_EEG_version,20,
Nonliving_Things,../experiment_stimuli/bw_bc_bl/Nonliving_Things/Buildings/palace_19.jpg,Buildings,0,palace,0,17,17,58,71.744417744,V_nV,2,71.7492355697,72.9970435565,1,2,0.761913595721,73.7795106361,2,0,0.310928276274,5,7.5,32,bw,99.7823236333,2019_may_28_1614,015,256,20,5,maite,Experiment_EEG_version,20,
Living_Things,../experiment_stimuli/bw_bc_bl/Living_Things/Animals/horse_19.jpg,Animals,0,horse,0,18,18,40,75.8232895278,nV_V,2,75.829631933,77.0658973143,0,1,0.711772968061,77.7982178114,1,1,0.190635551931,5,7.0,32,bw,99.7823236333,2019_may_28_1614,015,256,20,5,maite,Experiment_EEG_version,20,
Nonliving_Things,../experiment_stimuli/bw_bc_bl/Nonliving_Things/Musical_Inst/piano__3.jpg,Musical_Inst,0,piano,0,19,19,62,79.7217614101,nV_V,1,79.7279949561,80.9743977187,1,1,2.62595656142,83.620909215,1,1,1.15273422049,5,8.0,32,bw,99.7823236333,2019_may_28_1614,015,256,20,5,maite,Experiment_EEG_version,20,
Living_Things,../experiment_stimuli/bw_bc_bl/Living_Things/Marine_creatures/pomfret_18.jpg,Marine_creatures,0,pomfret,0,20,20,65,86.5065121895,nV_V,2,86.5113789691,87.7791820944,0,1,0.571468601236,88.3712038789,2,0,0.200681663351,5,6.0,32,bw,99.7823236333,2019_may_28_1614,015,256,20,5,maite,Experiment_EEG_version,20,
Nonliving_Things,../experiment_stimuli/bw_bc_bl/Nonliving_Things/Furniture/wardrobe_1.jpg,Furniture,0,wardrobe,0,21,21,93,90.3047749205,nV_V,1,90.3095419912,91.5674129764,1,1,1.1928129096,92.7807958848,2,0,0.320922565414,5,6.0,32,bw,99.7823236333,2019_may_28_1614,015,256,20,5,maite,Experiment_EEG_version,20,
Living_Things,../experiment_stimuli/bw_bc_bl/Living_Things/Birds/goldfinch_24.jpg,Birds,0,goldfinch,0,22,22,33,94.8346151817,nV_V,2,94.8402944047,96.0872455728,0,1,1.0324750666,97.1503109648,1,1,0.300719249528,5,7.0,32,bw,99.7823236333,2019_may_28_1614,015,256,20,5,maite,Experiment_EEG_version,20,
Living_Things,../experiment_stimuli/bw_bc_bl/Living_Things/Birds/pigeon_7.jpg,Birds,0,pigeon,0,23,23,63,99.1840753229,nV_V,2,99.1891914376,100.456757976,1,2,0.55142487702,101.028729232,2,0,0.290882932022,5,7.5,32,bw,99.7823236333,2019_may_28_1614,015,256,20,5,maite,Experiment_EEG_version,20,
Living_Things,../experiment_stimuli/bw_bc_bl/Living_Things/Animals/armadillo_4.jpg,Animals,0,armadillo,0,24,24,1,103.052479658,nV_V,2,103.057370784,104.315127128,1,2,0.721830741502,105.057542668,2,0,0.280832895311,5,8.0,32,bw,99.7823236333,2019_may_28_1614,015,256,20,5,maite,Experiment_EEG_version,20,
Nonliving_Things,../experiment_stimuli/bw_bc_bl/Nonliving_Things/Vehicles/car_5.jpg,Vehicles,0,car,0,25,25,11,107.071214623,nV_V,1,107.077131737,108.323840883,1,1,0.561450745212,108.905856893,3,0,0.230719192186,5,7.0,32,bw,99.7823236333,2019_may_28_1614,015,256,20,5,maite,Experiment_EEG_version,20,
Nonliving_Things,../experiment_stimuli/bw_bc_bl/Nonliving_Things/Vehicles/van_26.jpg,Vehicles,0,van,0,26,26,91,110.869478323,V_nV,2,110.874374547,112.102054886,0,1,0.58153506997,112.714182965,2,0,0.200686528347,5,6.0,32,bw,99.7823236333,2019_may_28_1614,015,256,20,5,maite,Experiment_EEG_version,20,
Nonliving_Things,../experiment_stimuli/bw_bc_bl/Nonliving_Things/Vehicles/train_15.jpg,Vehicles,0,train,0,27,27,87,114.647692496,nV_V,1,114.652547588,115.880286569,0,2,1.76406654436,117.664912815,2,0,0.230733748293,5,7.5,32,bw,99.7823236333,2019_may_28_1614,015,256,20,5,maite,Experiment_EEG_version,20,
Living_Things,../experiment_stimuli/bw_bc_bl/Living_Things/Marine_creatures/narwhal_16.jpg,Marine_creatures,0,narwhal,0,28,28,55,119.628518734,V_nV,1,119.633474284,120.861098172,1,1,2.28519925009,123.16683718,1,1,0.571490932256,5,6.5,32,bw,99.7823236333,2019_may_28_1614,015,256,20,5,maite,Experiment_EEG_version,20,
Nonliving_Things,../experiment_stimuli/bw_bc_bl/Nonliving_Things/Kitchen_Uten/cup_0.jpg,Kitchen_Uten,0,cup,0,29,29,22,125.47122125,nV_V,1,125.476912307,126.713824138,1,1,0.511339965975,127.245715626,2,0,0.160618229536,5,6.0,32,bw,99.7823236333,2019_may_28_1614,015,256,20,5,maite,Experiment_EEG_version,20,
Nonliving_Things,../experiment_stimuli/bw_bc_bl/Nonliving_Things/Vehicles/plane_13.jpg,Vehicles,0,plane,0,30,30,64,129.139198057,nV_V,1,129.144086073,130.371771367,1,1,0.701801715884,131.094138589,1,1,0.461226214189,5,6.0,32,bw,99.7823236333,2019_may_28_1614,015,256,20,5,maite,Experiment_EEG_version,20,
Nonliving_Things,../experiment_stimuli/bw_bc_bl/Nonliving_Things/Kitchen_Uten/teapot_5.jpg,Kitchen_Uten,0,teapot,0,31,31,83,133.288215795,nV_V,1,133.2939321,134.550858268,1,1,2.12485006521,136.696248366,2,0,1.6738582761,5,7.5,32,bw,99.7823236333,2019_may_28_1614,015,256,20,5,maite,Experiment_EEG_version,20,
Living_Things,../experiment_stimuli/bw_bc_bl/Living_Things/Birds/toucan_4.jpg,Birds,0,toucan,0,32,32,85,140.103034895,V_nV,1,140.108797095,141.355670835,0,2,0.52136200713,141.897561278,2,0,0.250760126859,5,6.0,32,bw,99.7823236333,2019_may_28_1614,015,256,20,5,maite,Experiment_EEG_version,20,
Living_Things,../experiment_stimuli/bw_bc_bl/Living_Things/Animals/rhino_6.jpg,Animals,0,rhino,0,33,33,68,143.881247094,V_nV,1,143.887143599,145.123842742,1,1,0.441215064609,145.585613437,2,0,0.200653359527,5,6.5,32,bw,99.7823236333,2019_may_28_1614,015,256,20,5,maite,Experiment_EEG_version,20,
Nonliving_Things,../experiment_stimuli/bw_bc_bl/Nonliving_Things/Musical_Inst/violin_26.jpg,Musical_Inst,0,violin,0,34,34,92,147.519151715,V_nV,2,147.525030432,148.751728371,1,2,0.320946820546,149.093230007,1,1,0.150556347566,5,6.0,32,bw,99.7823236333,2019_may_28_1614,015,256,20,5,maite,Experiment_EEG_version,20,
Nonliving_Things,../experiment_stimuli/bw_bc_bl/Nonliving_Things/Tools/hammer_10.jpg,Tools,0,hammer,0,35,35,37,150.976667973,nV_V,1,150.982131936,152.21926782,0,2,0.581496255007,152.82133207,2,0,0.72163108224,5,6.0,32,bw,99.7823236333,2019_may_28_1614,015,256,20,5,maite,Experiment_EEG_version,20,
Living_Things,../experiment_stimuli/bw_bc_bl/Living_Things/Insects/ladybird_22.jpg,Insects,0,ladybird,0,36,36,45,155.276014009,V_nV,1,155.28097637,156.508592454,0,2,0.541407584446,157.070574714,2,0,0.190624709707,5,6.5,32,bw,99.7823236333,2019_may_28_1614,015,256,20,5,maite,Experiment_EEG_version,20,
Living_Things,../experiment_stimuli/bw_bc_bl/Living_Things/Marine_creatures/killer-whale_1.jpg,Marine_creatures,0,killer-whale,0,37,37,43,158.994099501,V_nV,1,158.998960578,160.226677642,0,2,0.310904239304,160.558160969,1,1,0.210682309465,5,6.5,32,bw,99.7823236333,2019_may_28_1614,015,256,20,5,maite,Experiment_EEG_version,20,
Nonliving_Things,../experiment_stimuli/bw_bc_bl/Nonliving_Things/Kitchen_Uten/frying-pan_5.jpg,Kitchen_Uten,0,frying-pan,0,38,38,31,162.50172559,nV_V,1,162.506569313,163.754346004,1,1,1.95448318543,165.72939153,3,0,0.200647299411,5,6.0,32,bw,99.7823236333,2019_may_28_1614,015,256,20,5,maite,Experiment_EEG_version,20,
Living_Things,../experiment_stimuli/bw_bc_bl/Living_Things/Animals/tapir_10.jpg,Animals,0,tapir,0,39,39,82,167.662943763,V_nV,1,167.667930876,168.895522818,0,2,0.411125344923,169.327199425,1,1,0.19063828839,5,7.5,32,bw,99.7823236333,2019_may_28_1614,015,256,20,5,maite,Experiment_EEG_version,20,
Nonliving_Things,../experiment_stimuli/bw_bc_bl/Nonliving_Things/Vehicles/bus_26.jpg,Vehicles,0,bus,0,40,40,9,171.250745219,V_nV,2,171.255544827,172.49334528,0,1,1.70393520617,174.217821169,2,0,0.270901097916,5,6.5,32,bw,99.7823236333,2019_may_28_1614,015,256,20,5,maite,Experiment_EEG_version,20,
Living_Things,../experiment_stimuli/bw_bc_bl/Living_Things/Animals/tiger_12.jpg,Animals,0,tiger,0,41,41,84,176.221555465,nV_V,2,176.226398813,177.454147095,1,2,0.491296441527,177.965970761,1,1,0.230720801046,5,6.5,32,bw,99.7823236333,2019_may_28_1614,015,256,20,5,maite,Experiment_EEG_version,20,
Nonliving_Things,../experiment_stimuli/bw_bc_bl/Nonliving_Things/Furniture/armchair_11.jpg,Furniture,0,armchair,0,42,42,2,179.929609736,nV_V,1,179.934412186,181.192263229,1,1,0.451210959116,181.664020453,3,0,0.150576159358,5,6.0,32,bw,99.7823236333,2019_may_28_1614,015,256,20,5,maite,Experiment_EEG_version,20,
Nonliving_Things,../experiment_stimuli/bw_bc_bl/Nonliving_Things/Furniture/rocking-chair_24.jpg,Furniture,0,rocking-chair,0,43,43,69,183.547478765,V_nV,2,183.554459695,184.790078796,1,2,0.571468379581,185.382092002,2,0,0.200659171445,5,6.0,32,bw,99.7823236333,2019_may_28_1614,015,256,20,5,maite,Experiment_EEG_version,20,
Nonliving_Things,../experiment_stimuli/bw_bc_bl/Nonliving_Things/Kitchen_Uten/fondue_13.jpg,Kitchen_Uten,0,fondue,0,44,44,30,187.315676284,V_nV,2,187.321573489,188.548246947,1,2,0.421224493766,188.990060342,2,0,0.220707459142,5,6.5,32,bw,99.7823236333,2019_may_28_1614,015,256,20,5,maite,Experiment_EEG_version,20,
Nonliving_Things,../experiment_stimuli/bw_bc_bl/Nonliving_Things/Furniture/chair_5.jpg,Furniture,0,chair,0,45,45,15,190.943553876,nV_V,1,190.949615405,192.176137047,0,2,0.641623164294,192.838314714,1,1,0.17061226326,5,6.5,32,bw,99.7823236333,2019_may_28_1614,015,256,20,5,maite,Experiment_EEG_version,20,
Nonliving_Things,../experiment_stimuli/bw_bc_bl/Nonliving_Things/Musical_Inst/guitar_23.jpg,Musical_Inst,0,guitar,0,46,46,36,194.741818047,nV_V,1,194.746732468,195.98441586,1,1,0.441188346595,196.446150284,2,0,0.200650667772,5,6.5,32,bw,99.7823236333,2019_may_28_1614,015,256,20,5,maite,Experiment_EEG_version,20,
Nonliving_Things,../experiment_stimuli/bw_bc_bl/Nonliving_Things/Vehicles/tractor_21.jpg,Vehicles,0,tractor,0,47,47,86,198.37971695,V_nV,2,198.384689725,199.612305046,1,2,1.90437475662,201.537218535,1,1,2.65599795105,5,6.0,32,bw,99.7823236333,2019_may_28_1614,015,256,20,5,maite,Experiment_EEG_version,20,
Living_Things,../experiment_stimuli/bw_bc_bl/Living_Things/Insects/dragonfly_22.jpg,Insects,0,dragonfly,0,48,48,24,205.926127025,V_nV,1,205.931054777,207.178755243,1,1,1.09260724694,208.291953661,3,0,0.280684852274,5,6.5,32,bw,99.7823236333,2019_may_28_1614,015,256,20,5,maite,Experiment_EEG_version,20,
Nonliving_Things,../experiment_stimuli/bw_bc_bl/Nonliving_Things/Kitchen_Uten/small-saucepan_15.jpg,Kitchen_Uten,0,small-saucepan,0,49,49,77,210.305647356,V_nV,2,210.31066993,211.538228004,0,1,0.511346718296,212.070127871,2,0,0.180603808491,5,7.5,32,bw,99.7823236333,2019_may_28_1614,015,256,20,5,maite,Experiment_EEG_version,20,
Nonliving_Things,../experiment_stimuli/bw_bc_bl/Nonliving_Things/Buildings/house_8.jpg,Buildings,0,house,0,50,50,41,213.983706162,nV_V,1,213.988672714,215.216231108,0,2,0.571467105066,215.808270734,1,1,0.260817437666,5,6.0,32,bw,99.7823236333,2019_may_28_1614,015,256,20,5,maite,Experiment_EEG_version,20,
Nonliving_Things,../experiment_stimuli/bw_bc_bl/Nonliving_Things/Buildings/factory_14.jpg,Buildings,0,factory,0,51,51,28,217.801941644,nV_V,1,217.807246478,219.064590941,1,1,1.25297878124,220.338142375,1,1,0.381132925162,5,6.5,32,bw,99.7823236333,2019_may_28_1614,015,256,20,5,maite,Experiment_EEG_version,20,
Nonliving_Things,../experiment_stimuli/bw_bc_bl/Nonliving_Things/Tools/axe_5.jpg,Tools,0,axe,0,52,52,3,222.452055288,nV_V,1,222.457016187,223.734742433,0,2,0.411159822019,224.166486126,2,0,0.451201117132,5,8.0,32,bw,99.7823236333,2019_may_28_1614,015,256,20,5,maite,Experiment_EEG_version,20,
Living_Things,../experiment_stimuli/bw_bc_bl/Living_Things/Animals/elephant_5.jpg,Animals,0,elephant,0,53,53,27,226.350534317,V_nV,1,226.356518167,227.623194496,1,1,0.50136031257,228.145103901,3,0,0.140572716016,5,8.0,32,bw,99.7823236333,2019_may_28_1614,015,256,20,5,maite,Experiment_EEG_version,20,
Nonliving_Things,../experiment_stimuli/bw_bc_bl/Nonliving_Things/Buildings/cathedral_20.jpg,Buildings,0,cathedral,0,54,54,14,230.018503936,nV_V,1,230.023346352,231.271130726,1,1,1.5335694917,232.825250834,2,0,0.320925557753,5,6.0,32,bw,99.7823236333,2019_may_28_1614,015,256,20,5,maite,Experiment_EEG_version,20,
Living_Things,../experiment_stimuli/bw_bc_bl/Living_Things/Marine_creatures/sperm-whale_8.jpg,Marine_creatures,0,sperm-whale,0,55,55,80,234.879072431,nV_V,2,234.883858057,236.111648823,0,1,0.631438039476,236.763645944,1,1,0.240766055416,5,7.0,32,bw,99.7823236333,2019_may_28_1614,015,256,20,5,maite,Experiment_EEG_version,20,
Nonliving_Things,../experiment_stimuli/bw_bc_bl/Nonliving_Things/Buildings/mill_23.jpg,Buildings,0,mill,0,56,56,53,238.73745965,nV_V,1,238.742397343,239.980059565,0,2,1.24293430848,241.243555489,1,1,0.180643108208,5,6.0,32,bw,99.7823236333,2019_may_28_1614,015,256,20,5,maite,Experiment_EEG_version,20,
Nonliving_Things,../experiment_stimuli/bw_bc_bl/Nonliving_Things/Furniture/bed_19.jpg,Furniture,0,bed,0,57,57,5,243.157068562,V_nV,2,243.161801306,244.419715539,1,2,0.681712341961,245.121983782,3,0,0.160570440814,5,6.0,32,bw,99.7823236333,2019_may_28_1614,015,256,20,5,maite,Experiment_EEG_version,20,
Nonliving_Things,../experiment_stimuli/bw_bc_bl/Nonliving_Things/Musical_Inst/trumpet_1.jpg,Musical_Inst,0,trumpet,0,58,58,88,247.015493615,nV_V,1,247.021742499,248.258055726,1,1,1.23291012482,249.511512646,2,0,0.210673050489,5,6.0,32,bw,99.7823236333,2019_may_28_1614,015,256,20,5,maite,Experiment_EEG_version,20,
Nonliving_Things,../experiment_stimuli/bw_bc_bl/Nonliving_Things/Kitchen_Uten/coking-pot_5.jpg,Kitchen_Uten,0,coking-pot,0,59,59,18,251.455103548,V_nV,2,251.461165397,252.687688163,1,2,3.18715589261,255.895427956,2,0,2.42549651884,5,6.5,32,bw,99.7823236333,2019_may_28_1614,015,256,20,5,maite,Experiment_EEG_version,20,
Living_Things,../experiment_stimuli/bw_bc_bl/Living_Things/Birds/penguin_24.jpg,Birds,0,penguin,0,60,60,61,260.053799815,V_nV,1,260.058816202,261.296402583,0,2,1.52354011661,262.840500748,2,0,0.551436531125,5,6.5,32,bw,99.7823236333,2019_may_28_1614,015,256,20,5,maite,Experiment_EEG_version,20,
Nonliving_Things,../experiment_stimuli/bw_bc_bl/Nonliving_Things/Vehicles/boat_12.jpg,Vehicles,0,boat,0,61,61,7,265.124823119,V_nV,2,265.12968635,266.357411846,0,1,0.822016460588,267.199985791,2,0,0.300877864007,5,6.5,32,bw,99.7823236333,2019_may_28_1614,015,256,20,5,maite,Experiment_EEG_version,20,
Living_Things,../experiment_stimuli/bw_bc_bl/Living_Things/Birds/kiwi_0.jpg,Birds,0,kiwi,0,62,62,44,269.233756495,nV_V,2,269.238887154,270.476361541,1,2,0.511347142747,271.008269837,2,0,0.290862755151,5,7.0,32,bw,99.7823236333,2019_may_28_1614,015,256,20,5,maite,Experiment_EEG_version,20,
Living_Things,../experiment_stimuli/bw_bc_bl/Living_Things/Animals/lynx_16.jpg,Animals,0,lynx,0,63,63,50,273.032013793,nV_V,2,273.036978181,274.274618704,0,1,0.3810577197,274.676239817,1,1,0.300711054355,5,6.0,32,bw,99.7823236333,2019_may_28_1614,015,256,20,5,maite,Experiment_EEG_version,20,
Living_Things,../experiment_stimuli/bw_bc_bl/Living_Things/Birds/owl_10.jpg,Birds,0,owl,0,64,64,57,276.710006683,V_nV,1,276.716325957,277.962654469,0,2,0.73183564283,278.715053723,1,1,0.27081797854,5,7.0,32,bw,99.7823236333,2019_may_28_1614,015,256,20,5,maite,Experiment_EEG_version,20,
Nonliving_Things,../experiment_stimuli/bw_bc_bl/Nonliving_Things/Furniture/lamp_3.jpg,Furniture,0,lamp,0,65,65,46,280.718721742,V_nV,2,280.723734636,282.001415319,1,2,0.691719886614,282.723721445,3,0,0.310899983393,5,7.0,32,bw,99.7823236333,2019_may_28_1614,015,256,20,5,maite,Experiment_EEG_version,20,
Living_Things,../experiment_stimuli/bw_bc_bl/Living_Things/Birds/raven_15.jpg,Birds,0,raven,0,66,66,67,284.767530524,V_nV,1,284.772585335,286.030177685,1,1,0.471261194209,286.521983164,3,0,0.340972778387,5,6.0,32,bw,99.7823236333,2019_may_28_1614,015,256,20,5,maite,Experiment_EEG_version,20,
Nonliving_Things,../experiment_stimuli/bw_bc_bl/Nonliving_Things/Musical_Inst/tuba_13.jpg,Musical_Inst,0,tuba,0,67,67,89,288.595856557,V_nV,2,288.600926451,289.828434958,1,2,0.501321707619,290.350308942,3,0,0.200661408016,5,6.5,32,bw,99.7823236333,2019_may_28_1614,015,256,20,5,maite,Experiment_EEG_version,20,
Living_Things,../experiment_stimuli/bw_bc_bl/Living_Things/Birds/ostrich_17.jpg,Birds,0,ostrich,0,68,68,56,292.283865675,nV_V,2,292.289323323,293.526472192,1,2,0.97234073258,294.519371351,1,1,0.280859383754,5,6.0,32,bw,99.7823236333,2019_may_28_1614,015,256,20,5,maite,Experiment_EEG_version,20,
Living_Things,../experiment_stimuli/bw_bc_bl/Living_Things/Birds/barn-owl_15.jpg,Birds,0,barn-owl,0,69,69,4,296.533102887,nV_V,2,296.5383007,297.785730155,0,1,1.23290926754,299.039193861,2,0,0.481270983582,5,6.0,32,bw,99.7823236333,2019_may_28_1614,015,256,20,5,maite,Experiment_EEG_version,20,
Nonliving_Things,../experiment_stimuli/bw_bc_bl/Nonliving_Things/Furniture/Chest-of-drawers_14.jpg,Furniture,0,Chest-of-drawers,0,70,70,0,301.253362869,V_nV,2,301.258945996,302.495973126,1,2,0.461231206544,302.977753214,2,0,0.270808083937,5,7.5,32,bw,99.7823236333,2019_may_28_1614,015,256,20,5,maite,Experiment_EEG_version,20,
Living_Things,../experiment_stimuli/bw_bc_bl/Living_Things/Birds/hummingbird_4.jpg,Birds,0,hummingbird,0,71,71,42,304.981512183,nV_V,2,304.986686936,306.214051133,1,2,1.13268979336,307.36728126,1,1,2.97669962468,5,6.5,32,bw,99.7823236333,2019_may_28_1614,015,256,20,5,maite,Experiment_EEG_version,20,
Living_Things,../experiment_stimuli/bw_bc_bl/Living_Things/Animals/cheetah_5.jpg,Animals,0,cheetah,0,72,72,16,312.066872059,V_nV,1,312.072153939,313.319503195,1,1,0.771915572928,314.111974947,2,0,0.531381637789,5,8.0,32,bw,99.7823236333,2019_may_28_1614,015,256,20,5,maite,Experiment_EEG_version,20,
Living_Things,../experiment_stimuli/bw_bc_bl/Living_Things/Marine_creatures/shark_15.jpg,Marine_creatures,0,shark,0,73,73,75,316.376245561,nV_V,2,316.381530887,317.618843979,0,1,0.651643896941,318.291056833,2,0,0.320918280166,5,6.0,32,bw,99.7823236333,2019_may_28_1614,015,256,20,5,maite,Experiment_EEG_version,20,
Living_Things,../experiment_stimuli/bw_bc_bl/Living_Things/Animals/hippopotamus_8.jpg,Animals,0,hippopotamus,0,74,74,39,320.344865457,V_nV,1,320.350113051,321.577468071,0,2,0.300881134579,321.898893107,1,1,0.210678298725,5,8.0,32,bw,99.7823236333,2019_may_28_1614,015,256,20,5,maite,Experiment_EEG_version,20,
Living_Things,../experiment_stimuli/bw_bc_bl/Living_Things/Birds/partridge_9.jpg,Birds,0,partridge,0,75,75,59,323.842477468,V_nV,1,323.84777932,325.085750978,0,2,0.290866221767,325.396510399,1,1,0.39107924886,5,7.0,32,bw,99.7823236333,2019_may_28_1614,015,256,20,5,maite,Experiment_EEG_version,20,
Living_Things,../experiment_stimuli/bw_bc_bl/Living_Things/Marine_creatures/dolphin_5.jpg,Marine_creatures,0,dolphin,0,76,76,23,327.520472429,V_nV,1,327.525757623,328.773096748,1,1,0.882148129633,329.67578382,2,0,0.310894299531,5,6.0,32,bw,99.7823236333,2019_may_28_1614,015,256,20,5,maite,Experiment_EEG_version,20,
Living_Things,../experiment_stimuli/bw_bc_bl/Living_Things/Birds/sparrow_22.jpg,Birds,0,sparrow,0,77,77,79,331.719605757,nV_V,2,331.724951116,332.962203645,1,2,0.651648923056,333.63443013,1,1,0.741838428192,5,7.5,32,bw,99.7823236333,2019_may_28_1614,015,256,20,5,maite,Experiment_EEG_version,20,
Living_Things,../experiment_stimuli/bw_bc_bl/Living_Things/Birds/goose_18.jpg,Birds,0,goose,0,78,78,34,336.109150775,V_nV,1,336.114553675,337.371790715,1,1,0.631628371309,338.023984875,2,0,0.290852432139,5,6.0,32,bw,99.7823236333,2019_may_28_1614,015,256,20,5,maite,Experiment_EEG_version,20,
Nonliving_Things,../experiment_stimuli/bw_bc_bl/Nonliving_Things/Vehicles/motorbike_4.jpg,Vehicles,0,motorbike,0,79,79,54,340.04769926,nV_V,1,340.053116292,341.300334632,1,1,0.511338556651,341.832217598,3,0,0.160608782666,5,7.5,32,bw,99.7823236333,2019_may_28_1614,015,256,20,5,maite,Experiment_EEG_version,20,
Nonliving_Things,../experiment_stimuli/bw_bc_bl/Nonliving_Things/Buildings/granary_11.jpg,Buildings,0,granary,0,80,80,35,343.725697849,nV_V,1,343.731126042,344.958281625,0,2,0.31090224674,345.289768588,1,1,0.130497337552,5,6.5,32,bw,99.7823236333,2019_may_28_1614,015,256,20,5,maite,Experiment_EEG_version,20,
Nonliving_Things,../experiment_stimuli/bw_bc_bl/Nonliving_Things/Furniture/couch_4.jpg,Furniture,0,couch,0,81,81,19,347.153154748,nV_V,1,347.158619992,348.405793375,1,1,1.20284831477,349.629170013,1,1,0.250766645651,5,7.0,32,bw,99.7823236333,2019_may_28_1614,015,256,20,5,maite,Experiment_EEG_version,20,
Living_Things,../experiment_stimuli/bw_bc_bl/Living_Things/Marine_creatures/crab_3.jpg,Marine_creatures,0,crab,0,82,82,21,351.612844415,V_nV,1,351.618241413,352.89553947,1,1,0.741871615872,353.657964732,2,0,0.250767217018,5,6.0,32,bw,99.7823236333,2019_may_28_1614,015,256,20,5,maite,Experiment_EEG_version,20,
Nonliving_Things,../experiment_stimuli/bw_bc_bl/Nonliving_Things/Furniture/lectern_6.jpg,Furniture,0,lectern,0,83,83,47,355.641603319,nV_V,1,355.646987373,356.91427316,1,1,0.521365014371,357.456188865,2,0,0.220697327983,5,6.5,32,bw,99.7823236333,2019_may_28_1614,015,256,20,5,maite,Experiment_EEG_version,20,
Living_Things,../experiment_stimuli/bw_bc_bl/Living_Things/Birds/seagull_9.jpg,Birds,0,seagull,0,84,84,74,359.409796608,nV_V,2,359.415163866,360.672447067,1,2,0.922231822507,361.615230429,2,0,1.32312884042,5,6.0,32,bw,99.7823236333,2019_may_28_1614,015,256,20,5,maite,Experiment_EEG_version,20,
Nonliving_Things,../experiment_stimuli/bw_bc_bl/Nonliving_Things/Furniture/bookcase_17.jpg,Furniture,0,bookcase,0,85,85,8,364.671238696,V_nV,2,364.676712907,365.923862464,1,2,0.501319644041,366.445777358,2,0,0.230729906121,5,6.5,32,bw,99.7823236333,2019_may_28_1614,015,256,20,5,maite,Experiment_EEG_version,20,
Living_Things,../experiment_stimuli/bw_bc_bl/Living_Things/Animals/turtle_17.jpg,Animals,0,turtle,0,86,86,90,368.409363116,nV_V,2,368.415194077,369.651966263,1,2,0.441191760357,370.113712474,2,0,0.210781188216,5,6.5,32,bw,99.7823236333,2019_may_28_1614,015,256,20,5,maite,Experiment_EEG_version,20,
Living_Things,../experiment_stimuli/bw_bc_bl/Living_Things/Birds/pelican_5.jpg,Birds,0,pelican,0,87,87,60,372.057291571,V_nV,1,372.062748117,373.289875697,0,2,0.461240514647,373.771734544,1,1,0.381057689432,5,6.0,32,bw,99.7823236333,2019_may_28_1614,015,256,20,5,maite,Experiment_EEG_version,20,
Living_Things,../experiment_stimuli/bw_bc_bl/Living_Things/Birds/rooster_4.jpg,Birds,0,rooster,0,88,88,70,375.885617218,nV_V,2,375.891030245,377.128220621,1,2,0.571496021934,377.720270713,1,1,0.361010322114,5,6.0,32,bw,99.7823236333,2019_may_28_1614,015,256,20,5,maite,Experiment_EEG_version,20,
Living_Things,../experiment_stimuli/bw_bc_bl/Living_Things/Animals/lioness_26.jpg,Animals,0,lioness,0,89,89,48,379.814157819,V_nV,1,379.819716469,381.086825638,1,1,0.521364078159,381.628752602,2,0,0.250779055059,5,6.0,32,bw,99.7823236333,2019_may_28_1614,015,256,20,5,maite,Experiment_EEG_version,20,
Nonliving_Things,../experiment_stimuli/bw_bc_bl/Nonliving_Things/Kitchen_Uten/pot_18.jpg,Kitchen_Uten,0,pot,0,90,90,66,383.612413208,V_nV,2,383.619806426,384.865039994,1,2,0.461238642456,385.346837865,3,0,0.150545708602,5,8.0,32,bw,99.7823236333,2019_may_28_1614,015,256,20,5,maite,Experiment_EEG_version,20,
Nonliving_Things,../experiment_stimuli/bw_bc_bl/Nonliving_Things/Furniture/bedside-table_9.jpg,Furniture,0,bedside-table,0,91,91,6,387.240310135,nV_V,1,387.2459104,388.482903429,1,1,0.701784956735,389.205238238,2,0,0.170639733085,5,6.0,32,bw,99.7823236333,2019_may_28_1614,015,256,20,5,maite,Experiment_EEG_version,20,
Living_Things,../experiment_stimuli/bw_bc_bl/Living_Things/Animals/zebra_22.jpg,Animals,0,zebra,0,92,92,95,391.118737511,V_nV,1,391.124455218,392.351314539,0,2,0.521367183421,392.893244187,1,1,0.210676824907,5,6.0,32,bw,99.7823236333,2019_may_28_1614,015,256,20,5,maite,Experiment_EEG_version,20,
Living_Things,../experiment_stimuli/bw_bc_bl/Living_Things/Animals/cat_3.jpg,Animals,0,cat,0,93,93,13,394.836816589,V_nV,1,394.842560639,396.08946751,1,1,0.952383161522,397.062385313,1,1,6.7548887108,5,6.0,32,bw,99.7823236333,2019_may_28_1614,015,256,20,5,maite,Experiment_EEG_version,20,
Nonliving_Things,../experiment_stimuli/bw_bc_bl/Nonliving_Things/Buildings/castle_21.jpg,Buildings,0,castle,0,94,94,12,405.560129523,nV_V,1,405.565862617,406.832804837,1,1,1.15273654764,408.006130857,2,0,1.82419011928,5,6.5,32,bw,99.7823236333,2019_may_28_1614,015,256,20,5,maite,Experiment_EEG_version,20,
Nonliving_Things,../experiment_stimuli/bw_bc_bl/Nonliving_Things/Furniture/sofa_2.jpg,Furniture,0,sofa,0,95,95,78,411.563181242,nV_V,1,411.569102401,412.825841745,1,1,0.471253532683,413.31765166,2,0,0.200653111329,5,7.0,32,bw,99.7823236333,2019_may_28_1614,015,256,20,5,maite,Experiment_EEG_version,20,
