category,probe_path,subcategory,fixation_duration,label,trials.thisRepN,trials.thisTrialN,trials.thisN,trials.thisIndex,image_onset_time,response_window,correctAns,probe_onset,discrim_resptime,response.corr,response.keys,response.rt,visible_resptime,visible.keys,visible.corr,visible.rt,probeFrames,jitter2,n_square,experiment_color,frameRate,date,session,image_size,premask_dur,probeFrames,participant,expName,postmask_dur,
Nonliving_Things,../experiment_stimuli/bw_bc_bl/Nonliving_Things/Vehicles/van_19.jpg,Vehicles,0,van,0,0,0,91,3.71628736355,nV_V,1,3.73705602088,4.99897592934,1,1,0.581532949815,5.6113596519,3,0,0.210685272235,5,8.0,32,bw,99.7827089165,2019_may_28_1643,018,256,20,5,maite,Experiment_EEG_version,20,
Living_Things,../experiment_stimuli/bw_bc_bl/Living_Things/Animals/rhino_19.jpg,Animals,0,rhino,0,1,1,68,7.55462541897,nV_V,2,7.55939492187,8.80725168996,1,2,0.571476450656,9.39928588015,2,0,0.2206979068,5,7.5,32,bw,99.7827089165,2019_may_28_1643,018,256,20,5,maite,Experiment_EEG_version,20,
Living_Things,../experiment_stimuli/bw_bc_bl/Living_Things/Birds/partridge_23.jpg,Birds,0,partridge,0,2,2,59,11.3528834507,nV_V,2,11.3578817665,12.5955073987,1,2,0.912214916898,13.5282346196,2,0,0.351008412661,5,6.0,32,bw,99.7827089165,2019_may_28_1643,018,256,20,5,maite,Experiment_EEG_version,20,
Nonliving_Things,../experiment_stimuli/bw_bc_bl/Nonliving_Things/Tools/hammer_1.jpg,Tools,0,hammer,0,3,3,37,15.6121378576,nV_V,1,15.6179373686,16.8447256938,0,2,0.23058100976,17.0958572291,1,1,0.150547592202,5,6.0,32,bw,99.7827089165,2019_may_28_1643,018,256,20,5,maite,Experiment_EEG_version,20,
Nonliving_Things,../experiment_stimuli/bw_bc_bl/Nonliving_Things/Vehicles/bus_4.jpg,Vehicles,0,bus,0,4,4,9,18.9794623919,V_nV,2,18.9849591025,20.2220590622,0,1,0.571490056114,20.8141053801,1,1,0.370870105689,5,6.0,32,bw,99.7827089165,2019_may_28_1643,018,256,20,5,maite,Experiment_EEG_version,20,
Living_Things,../experiment_stimuli/bw_bc_bl/Living_Things/Animals/hippopotamus_20.jpg,Animals,0,hippopotamus,0,5,5,39,22.9180217716,V_nV,1,22.9227982105,24.1907038756,1,1,0.882150614401,25.0933803425,3,0,0.180671224603,5,6.0,32,bw,99.7827089165,2019_may_28_1643,018,256,20,5,maite,Experiment_EEG_version,20,
Living_Things,../experiment_stimuli/bw_bc_bl/Living_Things/Animals/horse_24.jpg,Animals,0,horse,0,6,6,40,27.0069030847,nV_V,2,27.0119043025,28.2595295813,1,2,0.501323944423,28.7814673055,2,0,0.160574001027,5,6.5,32,bw,99.7827089165,2019_may_28_1643,018,256,20,5,maite,Experiment_EEG_version,20,
Living_Things,../experiment_stimuli/bw_bc_bl/Living_Things/Birds/pigeon_17.jpg,Birds,0,pigeon,0,7,7,63,30.6748802867,V_nV,1,30.6802686381,31.917483066,1,1,0.571503311628,32.5095384251,2,0,0.120537461713,5,6.0,32,bw,99.7827089165,2019_may_28_1643,018,256,20,5,maite,Experiment_EEG_version,20,
Living_Things,../experiment_stimuli/bw_bc_bl/Living_Things/Animals/cheetah_9.jpg,Animals,0,cheetah,0,8,8,16,34.3629368255,V_nV,1,34.3679180848,35.5954812036,0,2,0.270831234055,35.8868667823,1,1,0.100281232968,5,6.0,32,bw,99.7827089165,2019_may_28_1643,018,256,20,5,maite,Experiment_EEG_version,20,
Living_Things,../experiment_stimuli/bw_bc_bl/Living_Things/Marine_creatures/manatee_13.jpg,Marine_creatures,0,manatee,0,9,9,52,37.7201926466,nV_V,2,37.7249429657,38.9627962979,1,2,0.751892660512,39.735240536,2,0,0.431160445325,5,6.0,32,bw,99.7827089165,2019_may_28_1643,018,256,20,5,maite,Experiment_EEG_version,20,
Living_Things,../experiment_stimuli/bw_bc_bl/Living_Things/Insects/scorpion_17.jpg,Insects,0,scorpion,0,10,10,73,41.8992795513,nV_V,2,41.9048453327,43.1318542412,1,2,0.200670340098,43.3530868248,1,1,0.17058528983,5,7.5,32,bw,99.7827089165,2019_may_28_1643,018,256,20,5,maite,Experiment_EEG_version,20,
Living_Things,../experiment_stimuli/bw_bc_bl/Living_Things/Birds/sparrow_9.jpg,Birds,0,sparrow,0,11,11,79,45.256573857,nV_V,2,45.2614225582,46.5192171687,0,1,0.531390051357,47.0711645912,1,1,0.952319225995,5,6.0,32,bw,99.7827089165,2019_may_28_1643,018,256,20,5,maite,Experiment_EEG_version,20,
Nonliving_Things,../experiment_stimuli/bw_bc_bl/Nonliving_Things/Kitchen_Uten/saucepan_0.jpg,Kitchen_Uten,0,saucepan,0,12,12,71,49.7563552216,V_nV,2,49.7611924079,51.0290235328,1,2,0.77190893027,51.8214816758,3,0,0.391073681181,5,6.0,32,bw,99.7827089165,2019_may_28_1643,018,256,20,5,maite,Experiment_EEG_version,20,
Living_Things,../experiment_stimuli/bw_bc_bl/Living_Things/Birds/goose_20.jpg,Birds,0,goose,0,13,13,34,53.9454683324,V_nV,1,53.950256448,55.1880637771,1,1,1.46342001925,56.6720657232,2,0,0.290851751808,5,7.0,32,bw,99.7827089165,2019_may_28_1643,018,256,20,5,maite,Experiment_EEG_version,20,
Living_Things,../experiment_stimuli/bw_bc_bl/Living_Things/Animals/elephant_9.jpg,Animals,0,elephant,0,14,14,27,58.6957878307,V_nV,1,58.7018915403,59.9283652685,1,1,0.591514852131,60.5404340327,2,0,0.190482745646,5,6.0,32,bw,99.7827089165,2019_may_28_1643,018,256,20,5,maite,Experiment_EEG_version,20,
Nonliving_Things,../experiment_stimuli/bw_bc_bl/Nonliving_Things/Furniture/armchair_20.jpg,Furniture,0,armchair,0,15,15,2,62.4639778044,nV_V,1,62.4691238697,63.6965560243,1,1,0.892168298131,64.6092771483,1,1,0.260831441265,5,6.0,32,bw,99.7827089165,2019_may_28_1643,018,256,20,5,maite,Experiment_EEG_version,20,
Nonliving_Things,../experiment_stimuli/bw_bc_bl/Nonliving_Things/Tools/axe_6.jpg,Tools,0,axe,0,16,16,3,66.6029759073,nV_V,1,66.6085992628,67.8556044453,1,1,0.741847789148,68.6179893238,1,1,0.220709534828,5,6.5,32,bw,99.7827089165,2019_may_28_1643,018,256,20,5,maite,Experiment_EEG_version,20,
Living_Things,../experiment_stimuli/bw_bc_bl/Living_Things/Birds/duck_2.jpg,Birds,0,duck,0,17,17,26,70.5716045967,nV_V,2,70.5772036181,71.8442762198,1,2,0.551430802094,72.4162414384,2,0,0.220544040902,5,6.0,32,bw,99.7827089165,2019_may_28_1643,018,256,20,5,maite,Experiment_EEG_version,20,
Nonliving_Things,../experiment_stimuli/bw_bc_bl/Nonliving_Things/Furniture/Chest-of-drawers_7.jpg,Furniture,0,Chest-of-drawers,0,18,18,0,74.3698599783,V_nV,2,74.3746420939,75.6325026734,1,2,0.671693380456,76.3247555487,2,0,0.351018848596,5,6.0,32,bw,99.7827089165,2019_may_28_1643,018,256,20,5,maite,Experiment_EEG_version,20,
Living_Things,../experiment_stimuli/bw_bc_bl/Living_Things/Marine_creatures/whale_6.jpg,Marine_creatures,0,whale,0,19,19,94,78.4086601401,nV_V,2,78.4135286082,79.6612632426,1,2,0.611584763974,80.2939042158,2,0,0.240751747508,5,7.5,32,bw,99.7827089165,2019_may_28_1643,018,256,20,5,maite,Experiment_EEG_version,20,
Living_Things,../experiment_stimuli/bw_bc_bl/Living_Things/Marine_creatures/killer-whale_22.jpg,Marine_creatures,0,killer-whale,0,20,20,43,82.2670656638,nV_V,2,82.2720304648,83.5096261317,1,2,0.571477883263,84.1016608523,2,0,0.371030878276,5,6.0,32,bw,99.7827089165,2019_may_28_1643,018,256,20,5,maite,Experiment_EEG_version,20,
Living_Things,../experiment_stimuli/bw_bc_bl/Living_Things/Birds/barn-owl_23.jpg,Birds,0,barn-owl,0,21,21,4,86.2056268181,V_nV,1,86.2112775417,87.4381756207,0,2,0.631603924558,88.0903409163,1,1,0.17058950034,5,6.5,32,bw,99.7827089165,2019_may_28_1643,018,256,20,5,maite,Experiment_EEG_version,20,
Nonliving_Things,../experiment_stimuli/bw_bc_bl/Nonliving_Things/Buildings/palace_1.jpg,Buildings,0,palace,0,22,22,58,89.9938233509,nV_V,1,89.99878378,91.2364415813,1,1,0.461233559996,91.7181988582,1,1,0.290860744193,5,7.5,32,bw,99.7827089165,2019_may_28_1643,018,256,20,5,maite,Experiment_EEG_version,20,
Living_Things,../experiment_stimuli/bw_bc_bl/Living_Things/Birds/seagull_5.jpg,Birds,0,seagull,0,23,23,74,93.741968638,nV_V,2,93.7474945588,94.9945920857,1,2,0.461244582431,95.4763947683,1,1,0.421150634065,5,7.0,32,bw,99.7827089165,2019_may_28_1643,018,256,20,5,maite,Experiment_EEG_version,20,
Nonliving_Things,../experiment_stimuli/bw_bc_bl/Nonliving_Things/Buildings/church_20.jpg,Buildings,0,church,0,24,24,17,97.6304235922,V_nV,2,97.6354194493,98.8930906293,1,2,0.631600897759,99.5452831348,3,0,0.230747999856,5,7.0,32,bw,99.7827089165,2019_may_28_1643,018,256,20,5,maite,Experiment_EEG_version,20,
Living_Things,../experiment_stimuli/bw_bc_bl/Living_Things/Animals/armadillo_0.jpg,Animals,0,armadillo,0,25,25,1,101.508858716,V_nV,1,101.515733979,102.741430432,0,2,0.421146179084,103.183142655,2,0,0.350990973413,5,8.0,32,bw,99.7827089165,2019_may_28_1643,018,256,20,5,maite,Experiment_EEG_version,20,
Nonliving_Things,../experiment_stimuli/bw_bc_bl/Nonliving_Things/Kitchen_Uten/fondue_17.jpg,Kitchen_Uten,0,fondue,0,26,26,30,105.267023585,nV_V,1,105.271906327,106.499607038,0,2,0.671691045864,107.201900969,1,1,0.33098073001,5,7.0,32,bw,99.7827089165,2019_may_28_1643,018,256,20,5,maite,Experiment_EEG_version,20,
Nonliving_Things,../experiment_stimuli/bw_bc_bl/Nonliving_Things/Vehicles/train_25.jpg,Vehicles,0,train,0,27,27,87,109.265717889,nV_V,1,109.271347621,110.528363066,1,1,0.48127601319,111.030219281,2,0,0.150549810147,5,6.0,32,bw,99.7827089165,2019_may_28_1643,018,256,20,5,maite,Experiment_EEG_version,20,
Living_Things,../experiment_stimuli/bw_bc_bl/Living_Things/Birds/magpie_19.jpg,Birds,0,magpie,0,28,28,51,112.913656367,V_nV,1,112.919488111,114.166270041,1,1,0.681741322856,114.868559498,2,0,0.230733740842,5,7.5,32,bw,99.7827089165,2019_may_28_1643,018,256,20,5,maite,Experiment_EEG_version,20,
Nonliving_Things,../experiment_stimuli/bw_bc_bl/Nonliving_Things/Furniture/bedside-table_21.jpg,Furniture,0,bedside-table,0,29,29,6,116.832178992,nV_V,1,116.837025449,118.07476684,0,2,0.240754081868,118.336074108,1,1,0.190475738375,5,6.5,32,bw,99.7827089165,2019_may_28_1643,018,256,20,5,maite,Experiment_EEG_version,20,
Nonliving_Things,../experiment_stimuli/bw_bc_bl/Nonliving_Things/Furniture/sofa_4.jpg,Furniture,0,sofa,0,30,30,78,120.259618906,V_nV,2,120.264532501,121.512233944,1,2,0.621585658286,122.154373733,2,0,0.230726481415,5,6.0,32,bw,99.7827089165,2019_may_28_1643,018,256,20,5,maite,Experiment_EEG_version,20,
Nonliving_Things,../experiment_stimuli/bw_bc_bl/Nonliving_Things/Furniture/couch_23.jpg,Furniture,0,couch,0,31,31,19,124.117998562,V_nV,2,124.123721551,125.360623822,1,2,0.471253735712,125.852403313,2,0,0.22054952546,5,6.5,32,bw,99.7827089165,2019_may_28_1643,018,256,20,5,maite,Experiment_EEG_version,20,
Living_Things,../experiment_stimuli/bw_bc_bl/Living_Things/Marine_creatures/crab_18.jpg,Marine_creatures,0,crab,0,32,32,21,127.806028639,V_nV,1,127.811021293,129.038601028,0,2,0.621581537649,129.680727952,2,0,0.34097378212,5,7.0,32,bw,99.7827089165,2019_may_28_1643,018,256,20,5,maite,Experiment_EEG_version,20,
Living_Things,../experiment_stimuli/bw_bc_bl/Living_Things/Insects/butterfly_13.jpg,Insects,0,butterfly,0,33,33,10,131.754604548,nV_V,2,131.759398144,132.98718829,1,2,0.310914430534,133.318661723,1,1,0.220698782941,5,6.0,32,bw,99.7827089165,2019_may_28_1643,018,256,20,5,maite,Experiment_EEG_version,20,
Living_Things,../experiment_stimuli/bw_bc_bl/Living_Things/Birds/owl_20.jpg,Birds,0,owl,0,34,34,57,135.272251004,nV_V,2,135.277335288,136.534897601,1,2,0.581492236117,137.136939329,2,0,0.230723692104,5,6.5,32,bw,99.7827089165,2019_may_28_1643,018,256,20,5,maite,Experiment_EEG_version,20,
Nonliving_Things,../experiment_stimuli/bw_bc_bl/Nonliving_Things/Buildings/factory_7.jpg,Buildings,0,factory,0,35,35,28,139.100574252,nV_V,1,139.105620665,140.353198842,1,1,0.852111608488,141.2258526,1,1,0.200689400081,5,6.0,32,bw,99.7827089165,2019_may_28_1643,018,256,20,5,maite,Experiment_EEG_version,20,
Living_Things,../experiment_stimuli/bw_bc_bl/Living_Things/Animals/tapir_2.jpg,Animals,0,tapir,0,36,36,82,143.159397259,V_nV,1,143.164369947,144.432065036,0,2,0.621582646854,145.074210103,1,1,0.160651327344,5,7.0,32,bw,99.7827089165,2019_may_28_1643,018,256,20,5,maite,Experiment_EEG_version,20,
Living_Things,../experiment_stimuli/bw_bc_bl/Living_Things/Insects/ladybird_16.jpg,Insects,0,ladybird,0,37,37,45,146.967678429,nV_V,2,146.972644696,148.260386295,0,1,0.541409110883,148.822358032,2,0,0.200664720265,5,6.5,32,bw,99.7827089165,2019_may_28_1643,018,256,20,5,maite,Experiment_EEG_version,20,
Nonliving_Things,../experiment_stimuli/bw_bc_bl/Nonliving_Things/Musical_Inst/violin_22.jpg,Musical_Inst,0,violin,0,38,38,92,150.755911514,nV_V,1,150.760989223,152.03859708,1,1,0.431192569202,152.490372674,3,0,0.170583711006,5,6.0,32,bw,99.7827089165,2019_may_28_1643,018,256,20,5,maite,Experiment_EEG_version,20,
Nonliving_Things,../experiment_stimuli/bw_bc_bl/Nonliving_Things/Musical_Inst/drum_16.jpg,Musical_Inst,0,drum,0,39,39,25,154.393878056,V_nV,2,154.39872684,155.646441343,1,2,0.541436151834,156.2084337,3,0,0.120346441865,5,6.0,32,bw,99.7827089165,2019_may_28_1643,018,256,20,5,maite,Experiment_EEG_version,20,
Nonliving_Things,../experiment_stimuli/bw_bc_bl/Nonliving_Things/Kitchen_Uten/pot_20.jpg,Kitchen_Uten,0,pot,0,40,40,66,158.061833645,V_nV,2,158.067799688,159.29437329,1,2,0.972370972857,160.287290593,1,1,0.190632265992,5,6.0,32,bw,99.7827089165,2019_may_28_1643,018,256,20,5,maite,Experiment_EEG_version,20,
Living_Things,../experiment_stimuli/bw_bc_bl/Living_Things/Birds/penguin_10.jpg,Birds,0,penguin,0,41,41,61,162.210831312,V_nV,1,162.216174194,163.473459052,1,1,1.32310727681,164.817100249,2,0,0.190631615696,5,6.5,32,bw,99.7827089165,2019_may_28_1643,018,256,20,5,maite,Experiment_EEG_version,20,
Living_Things,../experiment_stimuli/bw_bc_bl/Living_Things/Marine_creatures/narwhal_13.jpg,Marine_creatures,0,narwhal,0,42,42,55,166.740665731,nV_V,2,166.745626724,167.993283972,0,1,0.761919697281,168.785818637,1,1,0.471252852585,5,7.0,32,bw,99.7827089165,2019_may_28_1643,018,256,20,5,maite,Experiment_EEG_version,20,
Nonliving_Things,../experiment_stimuli/bw_bc_bl/Nonliving_Things/Buildings/cathedral_16.jpg,Buildings,0,cathedral,0,43,43,14,170.989894793,nV_V,1,170.994810632,172.252542315,1,1,0.611564136343,172.884667311,2,0,0.401101383381,5,6.0,32,bw,99.7827089165,2019_may_28_1643,018,256,20,5,maite,Experiment_EEG_version,20,
Living_Things,../experiment_stimuli/bw_bc_bl/Living_Things/Animals/lynx_24.jpg,Animals,0,lynx,0,44,44,50,175.018663659,V_nV,1,175.023612479,176.271279667,1,1,0.57147654891,176.863308064,2,0,0.160563689191,5,7.5,32,bw,99.7827089165,2019_may_28_1643,018,256,20,5,maite,Experiment_EEG_version,20,
Nonliving_Things,../experiment_stimuli/bw_bc_bl/Nonliving_Things/Vehicles/car_12.jpg,Vehicles,0,car,0,45,45,11,178.756786033,V_nV,2,178.761888528,179.999382252,1,2,0.431007458828,180.450933353,3,0,0.16057806462,5,7.5,32,bw,99.7827089165,2019_may_28_1643,018,256,20,5,maite,Experiment_EEG_version,20,
Nonliving_Things,../experiment_stimuli/bw_bc_bl/Nonliving_Things/Kitchen_Uten/cup_20.jpg,Kitchen_Uten,0,cup,0,46,46,22,182.344619469,V_nV,2,182.350564267,183.57716178,1,2,0.431001327233,184.028711091,1,1,0.370872928994,5,6.0,32,bw,99.7827089165,2019_may_28_1643,018,256,20,5,maite,Experiment_EEG_version,20,
Nonliving_Things,../experiment_stimuli/bw_bc_bl/Nonliving_Things/Furniture/bookcase_2.jpg,Furniture,0,bookcase,0,47,47,8,186.132818446,nV_V,1,186.138967042,187.37550381,1,1,0.471259239828,187.867213264,2,0,0.140541652683,5,7.5,32,bw,99.7827089165,2019_may_28_1643,018,256,20,5,maite,Experiment_EEG_version,20,
Nonliving_Things,../experiment_stimuli/bw_bc_bl/Nonliving_Things/Musical_Inst/trumpet_14.jpg,Musical_Inst,0,trumpet,0,48,48,88,189.740665223,V_nV,2,189.745804131,190.973243345,1,2,0.441031285329,191.434846253,2,0,0.190669069998,5,6.0,32,bw,99.7827089165,2019_may_28_1643,018,256,20,5,maite,Experiment_EEG_version,20,
Nonliving_Things,../experiment_stimuli/bw_bc_bl/Nonliving_Things/Vehicles/plane_1.jpg,Vehicles,0,plane,0,49,49,64,193.358523222,V_nV,2,193.364671051,194.591127235,1,2,0.43119998998,195.042863261,1,1,0.160568099003,5,6.0,32,bw,99.7827089165,2019_may_28_1643,018,256,20,5,maite,Experiment_EEG_version,20,
Nonliving_Things,../experiment_stimuli/bw_bc_bl/Nonliving_Things/Kitchen_Uten/coking-pot_22.jpg,Kitchen_Uten,0,coking-pot,0,50,50,18,196.936309321,nV_V,1,196.943509304,198.17890363,1,1,0.49134168867,198.690802326,2,0,0.170607428998,5,6.0,32,bw,99.7827089165,2019_may_28_1643,018,256,20,5,maite,Experiment_EEG_version,20,
Nonliving_Things,../experiment_stimuli/bw_bc_bl/Nonliving_Things/Kitchen_Uten/frying-pan_10.jpg,Kitchen_Uten,0,frying-pan,0,51,51,31,200.594256076,nV_V,1,200.599127853,201.826834879,1,1,0.721793749603,202.569177988,2,0,0.150535866851,5,6.5,32,bw,99.7827089165,2019_may_28_1643,018,256,20,5,maite,Experiment_EEG_version,20,
Living_Things,../experiment_stimuli/bw_bc_bl/Living_Things/Birds/pelican_14.jpg,Birds,0,pelican,0,52,52,60,204.452648668,nV_V,2,204.457613864,205.685220396,0,1,0.5815221495,206.287299705,1,1,0.431180422893,5,6.0,32,bw,99.7827089165,2019_may_28_1643,018,256,20,5,maite,Experiment_EEG_version,20,
Living_Things,../experiment_stimuli/bw_bc_bl/Living_Things/Birds/ostrich_4.jpg,Birds,0,ostrich,0,53,53,56,208.45134198,nV_V,2,208.456466275,209.693940056,1,2,0.32093165582,210.035420428,1,1,0.200662502088,5,6.0,32,bw,99.7827089165,2019_may_28_1643,018,256,20,5,maite,Experiment_EEG_version,20,
Nonliving_Things,../experiment_stimuli/bw_bc_bl/Nonliving_Things/Kitchen_Uten/small-saucepan_13.jpg,Kitchen_Uten,0,small-saucepan,0,54,54,77,211.968983557,V_nV,2,211.97393355,213.221604779,1,2,0.441207873169,213.68336756,1,1,0.210686531384,5,6.0,32,bw,99.7827089165,2019_may_28_1643,018,256,20,5,maite,Experiment_EEG_version,20,
Living_Things,../experiment_stimuli/bw_bc_bl/Living_Things/Birds/rooster_5.jpg,Birds,0,rooster,0,55,55,70,215.626934771,V_nV,1,215.631913722,216.899621574,1,1,0.451055198209,217.371221215,2,0,0.150548249949,5,7.0,32,bw,99.7827089165,2019_may_28_1643,018,256,20,5,maite,Experiment_EEG_version,20,
Nonliving_Things,../experiment_stimuli/bw_bc_bl/Nonliving_Things/Furniture/lectern_24.jpg,Furniture,0,lectern,0,56,56,47,219.25482816,nV_V,1,219.261179196,220.517469174,1,1,0.421174344141,220.959210446,2,0,0.120334201492,5,6.5,32,bw,99.7827089165,2019_may_28_1643,018,256,20,5,maite,Experiment_EEG_version,20,
Nonliving_Things,../experiment_stimuli/bw_bc_bl/Nonliving_Things/Vehicles/motorbike_25.jpg,Vehicles,0,motorbike,0,57,57,54,222.812589177,nV_V,1,222.819011724,224.065176028,1,1,0.55126283085,224.637002139,3,0,0.150560125709,5,6.0,32,bw,99.7827089165,2019_may_28_1643,018,256,20,5,maite,Experiment_EEG_version,20,
Living_Things,../experiment_stimuli/bw_bc_bl/Living_Things/Animals/lioness_19.jpg,Animals,0,lioness,0,58,58,48,226.520613945,V_nV,1,226.527401438,227.753195698,0,2,0.511390367756,228.285161046,2,0,0.330943395849,5,6.5,32,bw,99.7827089165,2019_may_28_1643,018,256,20,5,maite,Experiment_EEG_version,20,
Living_Things,../experiment_stimuli/bw_bc_bl/Living_Things/Animals/cow_26.jpg,Animals,0,cow,0,59,59,20,230.348939444,nV_V,2,230.354448027,231.591540697,0,1,0.72182863974,232.333931479,1,1,0.230728729162,5,7.5,32,bw,99.7827089165,2019_may_28_1643,018,256,20,5,maite,Experiment_EEG_version,20,
Nonliving_Things,../experiment_stimuli/bw_bc_bl/Nonliving_Things/Buildings/house_26.jpg,Buildings,0,house,0,60,60,41,234.297553097,nV_V,1,234.302750575,235.560167383,1,1,0.521359721432,236.102083107,2,0,0.561293495353,5,6.0,32,bw,99.7827089165,2019_may_28_1643,018,256,20,5,maite,Experiment_EEG_version,20,
Nonliving_Things,../experiment_stimuli/bw_bc_bl/Nonliving_Things/Kitchen_Uten/teapot_23.jpg,Kitchen_Uten,0,teapot,0,61,61,83,238.396429298,nV_V,1,238.401493841,239.639037821,1,1,0.631621036911,240.291243134,1,1,0.411117220996,5,6.0,32,bw,99.7827089165,2019_may_28_1643,018,256,20,5,maite,Experiment_EEG_version,20,
Nonliving_Things,../experiment_stimuli/bw_bc_bl/Nonliving_Things/Buildings/castle_22.jpg,Buildings,0,castle,0,62,62,12,242.43522055,nV_V,1,242.440427487,243.697884075,1,1,0.60153750889,244.319939065,2,0,0.280830361648,5,6.0,32,bw,99.7827089165,2019_may_28_1643,018,256,20,5,maite,Experiment_EEG_version,20,
Nonliving_Things,../experiment_stimuli/bw_bc_bl/Nonliving_Things/Buildings/mill_1.jpg,Buildings,0,mill,0,63,63,53,246.333693665,nV_V,1,246.340389513,247.586318184,0,2,0.381067982176,247.987947353,1,1,0.200662975898,5,6.0,32,bw,99.7827089165,2019_may_28_1643,018,256,20,5,maite,Experiment_EEG_version,20,
Nonliving_Things,../experiment_stimuli/bw_bc_bl/Nonliving_Things/Musical_Inst/piano__21.jpg,Musical_Inst,0,piano,0,64,64,62,249.921485688,nV_V,1,249.926736219,251.204174394,1,1,0.421143825864,251.645887485,2,0,0.451214827597,5,7.5,32,bw,99.7827089165,2019_may_28_1643,018,256,20,5,maite,Experiment_EEG_version,20,
Nonliving_Things,../experiment_stimuli/bw_bc_bl/Nonliving_Things/Furniture/bed_9.jpg,Furniture,0,bed,0,65,65,5,253.829981239,nV_V,1,253.83517774,255.102660768,1,1,0.451212214539,255.584428177,2,0,0.150556618348,5,6.0,32,bw,99.7827089165,2019_may_28_1643,018,256,20,5,maite,Experiment_EEG_version,20,
Nonliving_Things,../experiment_stimuli/bw_bc_bl/Nonliving_Things/Furniture/lamp_9.jpg,Furniture,0,lamp,0,66,66,46,257.46789256,nV_V,1,257.474369963,258.73053927,1,1,0.501324263867,259.25240783,3,0,0.421141415834,5,6.5,32,bw,99.7827089165,2019_may_28_1643,018,256,20,5,maite,Experiment_EEG_version,20,
Living_Things,../experiment_stimuli/bw_bc_bl/Living_Things/Marine_creatures/dolphin_9.jpg,Marine_creatures,0,dolphin,0,67,67,23,261.406464063,nV_V,2,261.411644647,262.649060914,1,2,0.761888389476,263.431501152,1,1,0.150539720198,5,6.0,32,bw,99.7827089165,2019_may_28_1643,018,256,20,5,maite,Experiment_EEG_version,20,
Nonliving_Things,../experiment_stimuli/bw_bc_bl/Nonliving_Things/Vehicles/tractor_22.jpg,Vehicles,0,tractor,0,68,68,86,265.314954268,nV_V,1,265.320267451,266.567577449,1,1,1.45338774915,268.041513257,3,0,0.431167389033,5,6.0,32,bw,99.7827089165,2019_may_28_1643,018,256,20,5,maite,Experiment_EEG_version,20,
Living_Things,../experiment_stimuli/bw_bc_bl/Living_Things/Birds/hen_9.jpg,Birds,0,hen,0,69,69,38,270.205587712,V_nV,1,270.210890395,271.438162026,0,2,0.501322226366,271.960040119,1,1,0.160567159066,5,6.5,32,bw,99.7827089165,2019_may_28_1643,018,256,20,5,maite,Experiment_EEG_version,20,
Living_Things,../experiment_stimuli/bw_bc_bl/Living_Things/Animals/tiger_18.jpg,Animals,0,tiger,0,70,70,84,273.853517626,V_nV,1,273.858910579,275.116165689,0,2,0.290890085977,275.427621812,1,1,0.200688242214,5,6.0,32,bw,99.7827089165,2019_may_28_1643,018,256,20,5,maite,Experiment_EEG_version,20,
Living_Things,../experiment_stimuli/bw_bc_bl/Living_Things/Animals/cat_10.jpg,Animals,0,cat,0,71,71,13,277.361141267,nV_V,2,277.366465469,278.643828142,0,1,0.571469958639,279.235861516,1,1,0.200646276819,5,6.0,32,bw,99.7827089165,2019_may_28_1643,018,256,20,5,maite,Experiment_EEG_version,20,
Living_Things,../experiment_stimuli/bw_bc_bl/Living_Things/Marine_creatures/pomfret_13.jpg,Marine_creatures,0,pomfret,0,72,72,65,281.169426941,V_nV,1,281.176037256,282.462133578,0,2,0.511344744358,282.994027175,2,0,0.180644232547,5,6.5,32,bw,99.7827089165,2019_may_28_1643,018,256,20,5,maite,Experiment_EEG_version,20,
Living_Things,../experiment_stimuli/bw_bc_bl/Living_Things/Insects/dragonfly_0.jpg,Insects,0,dragonfly,0,73,73,24,284.907545492,V_nV,1,284.913031586,286.190234103,1,1,0.501319767674,286.712122294,3,0,0.491295614513,5,6.0,32,bw,99.7827089165,2019_may_28_1643,018,256,20,5,maite,Experiment_EEG_version,20,
Living_Things,../experiment_stimuli/bw_bc_bl/Living_Things/Animals/zebra_6.jpg,Animals,0,zebra,0,74,74,95,288.946337019,V_nV,1,288.954634641,290.198949264,1,1,0.491293324856,290.710790614,3,0,0.130562528502,5,7.0,32,bw,99.7827089165,2019_may_28_1643,018,256,20,5,maite,Experiment_EEG_version,20,
Living_Things,../experiment_stimuli/bw_bc_bl/Living_Things/Birds/kiwi_6.jpg,Birds,0,kiwi,0,75,75,44,292.574212058,V_nV,1,292.579527494,293.816812364,1,1,0.541414509295,294.378775305,2,0,0.180619484978,5,6.5,32,bw,99.7827089165,2019_may_28_1643,018,256,20,5,maite,Experiment_EEG_version,20,
Nonliving_Things,../experiment_stimuli/bw_bc_bl/Nonliving_Things/Vehicles/ship_18.jpg,Vehicles,0,ship,0,76,76,76,296.292297479,V_nV,2,296.297704146,297.524884473,1,2,0.411157367053,297.956578046,1,1,0.180612669094,5,6.0,32,bw,99.7827089165,2019_may_28_1643,018,256,20,5,maite,Experiment_EEG_version,20,
Living_Things,../experiment_stimuli/bw_bc_bl/Living_Things/Marine_creatures/sperm-whale_10.jpg,Marine_creatures,0,sperm-whale,0,77,77,80,299.870088108,V_nV,1,299.875399626,301.122722206,0,2,0.501322542317,301.64458595,1,1,0.220550600905,5,6.0,32,bw,99.7827089165,2019_may_28_1643,018,256,20,5,maite,Experiment_EEG_version,20,
Nonliving_Things,../experiment_stimuli/bw_bc_bl/Nonliving_Things/Furniture/wardrobe_21.jpg,Furniture,0,wardrobe,0,78,78,93,303.598182577,V_nV,2,303.603587112,304.870853369,1,2,1.13269461645,306.024085545,2,0,0.180617368314,5,6.5,32,bw,99.7827089165,2019_may_28_1643,018,256,20,5,maite,Experiment_EEG_version,20,
Nonliving_Things,../experiment_stimuli/bw_bc_bl/Nonliving_Things/Musical_Inst/tuba_21.jpg,Musical_Inst,0,tuba,0,79,79,89,307.937613385,nV_V,1,307.943224887,309.190233855,1,1,0.531388709089,309.742174672,3,0,0.180612416938,5,8.0,32,bw,99.7827089165,2019_may_28_1643,018,256,20,5,maite,Experiment_EEG_version,20,
Nonliving_Things,../experiment_stimuli/bw_bc_bl/Nonliving_Things/Musical_Inst/saxophone_5.jpg,Musical_Inst,0,saxophone,0,80,80,72,311.655696452,nV_V,1,311.661417415,312.888280134,0,2,0.942284647841,313.851131957,1,1,0.240759002976,5,8.0,32,bw,99.7827089165,2019_may_28_1643,018,256,20,5,maite,Experiment_EEG_version,20,
Nonliving_Things,../experiment_stimuli/bw_bc_bl/Nonliving_Things/Buildings/granary_16.jpg,Buildings,0,granary,0,81,81,35,315.824771936,nV_V,1,315.830307259,317.077378508,1,1,1.65381777706,318.7517714,1,1,2.03448849125,5,6.0,32,bw,99.7827089165,2019_may_28_1643,018,256,20,5,maite,Experiment_EEG_version,20,
Living_Things,../experiment_stimuli/bw_bc_bl/Living_Things/Birds/raven_8.jpg,Birds,0,raven,0,82,82,67,322.519312368,V_nV,1,322.526525009,323.791979003,1,1,0.461233762791,324.273774106,1,1,0.571504022228,5,6.0,32,bw,99.7827089165,2019_may_28_1643,018,256,20,5,maite,Experiment_EEG_version,20,
Living_Things,../experiment_stimuli/bw_bc_bl/Living_Things/Birds/toucan_9.jpg,Birds,0,toucan,0,83,83,85,326.578130191,V_nV,1,326.586840393,327.860822776,1,1,0.391078658635,328.272483955,2,0,0.140577689977,5,6.0,32,bw,99.7827089165,2019_may_28_1643,018,256,20,5,maite,Experiment_EEG_version,20,
Living_Things,../experiment_stimuli/bw_bc_bl/Living_Things/Animals/turtle_19.jpg,Animals,0,turtle,0,84,84,90,330.145892565,nV_V,2,330.151478748,331.428582962,0,1,0.661680121208,332.110811105,1,1,0.20066258125,5,7.5,32,bw,99.7827089165,2019_may_28_1643,018,256,20,5,maite,Experiment_EEG_version,20,
Nonliving_Things,../experiment_stimuli/bw_bc_bl/Nonliving_Things/Musical_Inst/guitar_17.jpg,Musical_Inst,0,guitar,0,85,85,36,334.04437694,V_nV,2,334.050090696,335.347098136,1,2,0.591516329674,335.959183306,3,0,0.230723579414,5,8.0,32,bw,99.7827089165,2019_may_28_1643,018,256,20,5,maite,Experiment_EEG_version,20,
Nonliving_Things,../experiment_stimuli/bw_bc_bl/Nonliving_Things/Furniture/filling-cabinet_19.jpg,Furniture,0,filling-cabinet,0,86,86,29,337.922798448,nV_V,1,337.930082339,339.195467567,1,1,0.681723465677,339.897735825,2,0,0.200510237133,5,6.0,32,bw,99.7827089165,2019_may_28_1643,018,256,20,5,maite,Experiment_EEG_version,20,
Living_Things,../experiment_stimuli/bw_bc_bl/Living_Things/Birds/goldfinch_10.jpg,Birds,0,goldfinch,0,87,87,33,341.831294618,nV_V,2,341.837056175,343.093940784,1,2,0.531386510003,343.645884356,2,0,0.200660543749,5,6.5,32,bw,99.7827089165,2019_may_28_1643,018,256,20,5,maite,Experiment_EEG_version,20,
Nonliving_Things,../experiment_stimuli/bw_bc_bl/Nonliving_Things/Vehicles/boat_23.jpg,Vehicles,0,boat,0,88,88,7,345.579440729,nV_V,1,345.585095389,346.83236418,1,1,1.52357581514,348.376202487,2,0,0.340967755765,5,6.5,32,bw,99.7827089165,2019_may_28_1643,018,256,20,5,maite,Experiment_EEG_version,20,
Living_Things,../experiment_stimuli/bw_bc_bl/Living_Things/Marine_creatures/lobster_11.jpg,Marine_creatures,0,lobster,0,89,89,49,350.460063105,nV_V,2,350.465878642,351.712678282,0,1,0.471293322043,352.204542032,1,1,0.340962323826,5,6.5,32,bw,99.7827089165,2019_may_28_1643,018,256,20,5,maite,Experiment_EEG_version,20,
Nonliving_Things,../experiment_stimuli/bw_bc_bl/Nonliving_Things/Furniture/chair_0.jpg,Furniture,0,chair,0,90,90,15,354.278365707,nV_V,1,354.284234506,355.551024417,1,1,0.371040900238,355.942613098,1,1,0.240754544502,5,6.0,32,bw,99.7827089165,2019_may_28_1643,018,256,20,5,maite,Experiment_EEG_version,20,
Nonliving_Things,../experiment_stimuli/bw_bc_bl/Nonliving_Things/Furniture/table_20.jpg,Furniture,0,table,0,91,91,81,357.916263671,nV_V,1,357.922013385,359.208982582,1,1,0.49129577959,359.720817568,3,0,0.180666803615,5,6.0,32,bw,99.7827089165,2019_may_28_1643,018,256,20,5,maite,Experiment_EEG_version,20,
Living_Things,../experiment_stimuli/bw_bc_bl/Living_Things/Animals/giraffe_10.jpg,Animals,0,giraffe,0,92,92,32,361.634344091,V_nV,1,361.640209917,362.896990648,1,1,0.771937159123,363.689483313,2,0,0.200688212179,5,6.5,32,bw,99.7827089165,2019_may_28_1643,018,256,20,5,maite,Experiment_EEG_version,20,
Living_Things,../experiment_stimuli/bw_bc_bl/Living_Things/Birds/hummingbird_12.jpg,Birds,0,hummingbird,0,93,93,42,365.623011175,V_nV,1,365.628821001,366.875644258,1,1,0.842086691875,367.73827979,3,0,0.431164945476,5,6.5,32,bw,99.7827089165,2019_may_28_1643,018,256,20,5,maite,Experiment_EEG_version,20,
Living_Things,../experiment_stimuli/bw_bc_bl/Living_Things/Marine_creatures/shark_20.jpg,Marine_creatures,0,shark,0,94,94,75,369.902323542,nV_V,2,369.908176804,371.134911675,0,1,0.601538005518,371.757009646,1,1,0.230747007066,5,6.5,32,bw,99.7827089165,2019_may_28_1643,018,256,20,5,maite,Experiment_EEG_version,20,
Nonliving_Things,../experiment_stimuli/bw_bc_bl/Nonliving_Things/Furniture/rocking-chair_12.jpg,Furniture,0,rocking-chair,0,95,95,69,373.720617742,nV_V,1,373.726684215,374.983266629,0,2,0.641631066566,375.645468423,2,0,0.210693640169,5,6.0,32,bw,99.7827089165,2019_may_28_1643,018,256,20,5,maite,Experiment_EEG_version,20,
