category,probe_path,subcategory,fixation_duration,label,trials.thisRepN,trials.thisTrialN,trials.thisN,trials.thisIndex,image_onset_time,response_window,correctAns,probe_onset,discrim_resptime,response.corr,response.keys,response.rt,visible_resptime,visible.keys,visible.corr,visible.rt,probeFrames,jitter2,n_square,experiment_color,frameRate,date,session,image_size,premask_dur,probeFrames,participant,expName,postmask_dur,
Living_Things,../experiment_stimuli/bw_bc_bl/Living_Things/Birds/seagull_23.jpg,Birds,0,seagull,0,0,0,74,3.71732314932,V_nV,1,3.73851562035,5.00001234701,1,1,0.842048981925,5.87292646966,3,0,0.401091398438,5,7.5,32,bw,99.782859136,2019_may_28_1538,011,256,20,5,maite,Experiment_EEG_version,20,
Nonliving_Things,../experiment_stimuli/bw_bc_bl/Nonliving_Things/Furniture/lectern_7.jpg,Furniture,0,lectern,0,1,1,47,8.00665416708,nV_V,1,8.01149714668,9.25926826149,1,1,0.561482533813,9.84130421886,3,0,0.371037821518,5,6.0,32,bw,99.782859136,2019_may_28_1538,011,256,20,5,maite,Experiment_EEG_version,20,
Living_Things,../experiment_stimuli/bw_bc_bl/Living_Things/Animals/zebra_15.jpg,Animals,0,zebra,0,2,2,95,11.9452020768,V_nV,1,11.950074293,13.1777869507,0,2,0.511340108933,13.7096902088,2,0,0.441183693008,5,6.0,32,bw,99.782859136,2019_may_28_1538,011,256,20,5,maite,Experiment_EEG_version,20,
Nonliving_Things,../experiment_stimuli/bw_bc_bl/Nonliving_Things/Vehicles/ship_11.jpg,Vehicles,0,ship,0,3,3,76,15.8837684712,V_nV,2,15.8895556557,17.1163440896,1,2,1.15273610759,18.2896380345,1,1,0.280881075189,5,6.0,32,bw,99.782859136,2019_may_28_1538,011,256,20,5,maite,Experiment_EEG_version,20,
Living_Things,../experiment_stimuli/bw_bc_bl/Living_Things/Animals/tapir_23.jpg,Animals,0,tapir,0,4,4,82,20.3033669728,V_nV,1,20.3087734033,21.555998334,1,1,1.20284655178,22.7794000385,3,0,0.681703507667,5,6.0,32,bw,99.782859136,2019_may_28_1538,011,256,20,5,maite,Experiment_EEG_version,20,
Nonliving_Things,../experiment_stimuli/bw_bc_bl/Nonliving_Things/Kitchen_Uten/pot_9.jpg,Kitchen_Uten,0,pot,0,5,5,66,25.1940031871,V_nV,2,25.1989104177,26.4265875537,1,2,0.481272596167,26.9284091599,1,1,0.45120021468,5,6.5,32,bw,99.782859136,2019_may_28_1538,011,256,20,5,maite,Experiment_EEG_version,20,
Nonliving_Things,../experiment_stimuli/bw_bc_bl/Nonliving_Things/Furniture/table_3.jpg,Furniture,0,table,0,6,6,81,29.1125215041,nV_V,1,29.1174885684,30.3551246179,1,1,0.63160454086,31.0072833647,3,0,0.441178884823,5,6.0,32,bw,99.782859136,2019_may_28_1538,011,256,20,5,maite,Experiment_EEG_version,20,
Living_Things,../experiment_stimuli/bw_bc_bl/Living_Things/Birds/raven_10.jpg,Birds,0,raven,0,7,7,67,33.1813693447,nV_V,2,33.1873135532,34.4139464367,0,1,0.681734601269,35.1162360746,1,1,0.391075963154,5,6.0,32,bw,99.782859136,2019_may_28_1538,011,256,20,5,maite,Experiment_EEG_version,20,
Living_Things,../experiment_stimuli/bw_bc_bl/Living_Things/Marine_creatures/dolphin_21.jpg,Marine_creatures,0,dolphin,0,8,8,23,37.2401904834,nV_V,2,37.2450158391,38.5028423287,0,1,0.691736330045,39.2151534997,1,1,1.38323250576,5,6.0,32,bw,99.782859136,2019_may_28_1538,011,256,20,5,maite,Experiment_EEG_version,20,
Living_Things,../experiment_stimuli/bw_bc_bl/Living_Things/Animals/cheetah_8.jpg,Animals,0,cheetah,0,9,9,16,42.3312584322,V_nV,1,42.3367673084,43.6139505885,0,2,2.21503125108,45.8495609437,2,0,0.67167988047,5,7.0,32,bw,99.782859136,2019_may_28_1538,011,256,20,5,maite,Experiment_EEG_version,20,
Nonliving_Things,../experiment_stimuli/bw_bc_bl/Nonliving_Things/Buildings/castle_2.jpg,Buildings,0,castle,0,10,10,12,48.2541376266,V_nV,2,48.2589376068,49.5268195013,1,2,0.461230420973,50.0085838311,2,0,0.340963206952,5,6.5,32,bw,99.782859136,2019_may_28_1538,011,256,20,5,maite,Experiment_EEG_version,20,
Living_Things,../experiment_stimuli/bw_bc_bl/Living_Things/Birds/hen_16.jpg,Birds,0,hen,0,11,11,38,52.0824576039,nV_V,2,52.0872690876,53.3451043179,1,2,0.892158200499,54.2578170509,1,1,0.43116330984,5,6.0,32,bw,99.782859136,2019_may_28_1538,011,256,20,5,maite,Experiment_EEG_version,20,
Nonliving_Things,../experiment_stimuli/bw_bc_bl/Nonliving_Things/Vehicles/bus_10.jpg,Vehicles,0,bus,0,12,12,9,56.4219251664,V_nV,2,56.4268725959,57.70457809,1,2,0.531378570246,58.2565147569,3,0,0.210667960346,5,6.0,32,bw,99.782859136,2019_may_28_1538,011,256,20,5,maite,Experiment_EEG_version,20,
Nonliving_Things,../experiment_stimuli/bw_bc_bl/Nonliving_Things/Furniture/bedside-table_5.jpg,Furniture,0,bedside-table,0,13,13,6,60.2001147261,V_nV,2,60.2049814989,61.4627541846,1,2,0.431172069162,61.9144786815,3,0,0.220691140043,5,7.0,32,bw,99.782859136,2019_may_28_1538,011,256,20,5,maite,Experiment_EEG_version,20,
Living_Things,../experiment_stimuli/bw_bc_bl/Living_Things/Marine_creatures/manatee_26.jpg,Marine_creatures,0,manatee,0,14,14,52,63.8680813005,nV_V,2,63.8728925402,65.1106918503,1,2,1.24276644597,66.3740721103,3,0,0.350980860647,5,7.0,32,bw,99.782859136,2019_may_28_1538,011,256,20,5,maite,Experiment_EEG_version,20,
Nonliving_Things,../experiment_stimuli/bw_bc_bl/Nonliving_Things/Kitchen_Uten/coking-pot_21.jpg,Kitchen_Uten,0,coking-pot,0,15,15,18,68.4580624336,nV_V,1,68.4628257568,69.6906407136,1,1,0.842060161987,70.5532591601,2,0,0.300726414891,5,6.0,32,bw,99.782859136,2019_may_28_1538,011,256,20,5,maite,Experiment_EEG_version,20,
Nonliving_Things,../experiment_stimuli/bw_bc_bl/Nonliving_Things/Furniture/couch_13.jpg,Furniture,0,couch,0,16,16,19,72.5870335221,V_nV,2,72.5925229476,73.8196152421,1,2,0.591509810416,74.431694367,2,0,0.320921095554,5,6.0,32,bw,99.782859136,2019_may_28_1538,011,256,20,5,maite,Experiment_EEG_version,20,
Living_Things,../experiment_stimuli/bw_bc_bl/Living_Things/Animals/hippopotamus_12.jpg,Animals,0,hippopotamus,0,17,17,39,76.4855065774,V_nV,1,76.4911211738,77.7180890115,0,2,1.16276023467,78.9014008841,1,1,0.340966823511,5,6.5,32,bw,99.782859136,2019_may_28_1538,011,256,20,5,maite,Experiment_EEG_version,20,
Living_Things,../experiment_stimuli/bw_bc_bl/Living_Things/Animals/lioness_9.jpg,Animals,0,lioness,0,18,18,48,80.9752669954,V_nV,1,80.9802592099,82.2178716806,1,1,0.80197050306,83.0404051037,2,0,0.260783776641,5,6.0,32,bw,99.782859136,2019_may_28_1538,011,256,20,5,maite,Experiment_EEG_version,20,
Nonliving_Things,../experiment_stimuli/bw_bc_bl/Nonliving_Things/Musical_Inst/piano__4.jpg,Musical_Inst,0,piano,0,19,19,62,85.0340975886,V_nV,2,85.0389046478,86.2666703758,1,2,0.942267900333,87.2295152897,1,1,0.481266836869,5,6.5,32,bw,99.782859136,2019_may_28_1538,011,256,20,5,maite,Experiment_EEG_version,20,
Nonliving_Things,../experiment_stimuli/bw_bc_bl/Nonliving_Things/Buildings/palace_4.jpg,Buildings,0,palace,0,20,20,58,89.4436807334,V_nV,2,89.4496688698,90.6963041439,1,2,0.791945443721,91.5088111125,1,1,0.391070271609,5,7.5,32,bw,99.782859136,2019_may_28_1538,011,256,20,5,maite,Experiment_EEG_version,20,
Living_Things,../experiment_stimuli/bw_bc_bl/Living_Things/Insects/scorpion_11.jpg,Insects,0,scorpion,0,21,21,73,93.6327900698,nV_V,2,93.638612329,94.8954357351,1,2,0.671717534075,95.5877112153,2,0,0.371036836412,5,6.5,32,bw,99.782859136,2019_may_28_1538,011,256,20,5,maite,Experiment_EEG_version,20,
Nonliving_Things,../experiment_stimuli/bw_bc_bl/Nonliving_Things/Musical_Inst/guitar_7.jpg,Musical_Inst,0,guitar,0,22,22,36,97.6916070166,V_nV,2,97.6965873931,98.9442391447,1,2,0.92225396866,99.8870353908,3,0,0.340806777356,5,6.5,32,bw,99.782859136,2019_may_28_1538,011,256,20,5,maite,Experiment_EEG_version,20,
Living_Things,../experiment_stimuli/bw_bc_bl/Living_Things/Birds/rooster_22.jpg,Birds,0,rooster,0,23,23,70,101.960889378,nV_V,2,101.965933757,103.193472778,1,2,1.56365750823,104.777692657,1,1,0.371025513392,5,6.5,32,bw,99.782859136,2019_may_28_1538,011,256,20,5,maite,Experiment_EEG_version,20,
Living_Things,../experiment_stimuli/bw_bc_bl/Living_Things/Animals/turtle_1.jpg,Animals,0,turtle,0,24,24,90,106.881590996,V_nV,1,106.888317035,108.124194873,1,1,1.47343077417,109.618224781,2,0,0.481286592316,5,6.0,32,bw,99.782859136,2019_may_28_1538,011,256,20,5,maite,Experiment_EEG_version,20,
Nonliving_Things,../experiment_stimuli/bw_bc_bl/Nonliving_Things/Vehicles/tractor_18.jpg,Vehicles,0,tractor,0,25,25,86,111.832352079,nV_V,1,111.837251253,113.064932077,0,2,0.952294790186,114.037807087,1,1,0.39106942201,5,6.5,32,bw,99.782859136,2019_may_28_1538,011,256,20,5,maite,Experiment_EEG_version,20,
Nonliving_Things,../experiment_stimuli/bw_bc_bl/Nonliving_Things/Vehicles/boat_1.jpg,Vehicles,0,boat,0,26,26,7,116.161767376,V_nV,2,116.167424731,117.414386459,1,2,0.621573263546,118.066554337,3,0,0.270658552414,5,6.0,32,bw,99.782859136,2019_may_28_1538,011,256,20,5,maite,Experiment_EEG_version,20,
Living_Things,../experiment_stimuli/bw_bc_bl/Living_Things/Birds/goldfinch_20.jpg,Birds,0,goldfinch,0,27,27,33,120.070265407,nV_V,2,120.07555508,121.302845244,1,2,0.751704362221,122.075101432,1,1,0.852081646444,5,7.0,32,bw,99.782859136,2019_may_28_1538,011,256,20,5,maite,Experiment_EEG_version,20,
Nonliving_Things,../experiment_stimuli/bw_bc_bl/Nonliving_Things/Musical_Inst/saxophone_24.jpg,Musical_Inst,0,saxophone,0,28,28,72,124.660246082,nV_V,1,124.665591412,125.912867056,0,2,1.84423768567,127.77765462,1,1,0.350988183869,5,6.0,32,bw,99.782859136,2019_may_28_1538,011,256,20,5,maite,Experiment_EEG_version,20,
Living_Things,../experiment_stimuli/bw_bc_bl/Living_Things/Birds/owl_22.jpg,Birds,0,owl,0,29,29,57,129.861546956,nV_V,2,129.866365072,131.124217655,0,1,0.781927312957,131.926672249,2,0,0.671676952159,5,6.0,32,bw,99.782859136,2019_may_28_1538,011,256,20,5,maite,Experiment_EEG_version,20,
Nonliving_Things,../experiment_stimuli/bw_bc_bl/Nonliving_Things/Kitchen_Uten/fondue_14.jpg,Kitchen_Uten,0,fondue,0,30,30,30,134.331263619,V_nV,2,134.336127798,135.583888079,1,2,0.892184466589,136.496642258,2,0,0.330940399319,5,7.5,32,bw,99.782859136,2019_may_28_1538,011,256,20,5,maite,Experiment_EEG_version,20,
Living_Things,../experiment_stimuli/bw_bc_bl/Living_Things/Marine_creatures/narwhal_4.jpg,Marine_creatures,0,narwhal,0,31,31,55,138.560507832,V_nV,1,138.566297738,139.803063225,0,2,0.992387539474,140.816010286,1,1,0.501307064667,5,6.5,32,bw,99.782859136,2019_may_28_1538,011,256,20,5,maite,Experiment_EEG_version,20,
Living_Things,../experiment_stimuli/bw_bc_bl/Living_Things/Animals/cow_22.jpg,Animals,0,cow,0,32,32,20,143.05023163,nV_V,2,143.05510979,144.322889949,0,1,1.01227817568,145.355743067,3,0,0.260789437918,5,6.5,32,bw,99.782859136,2019_may_28_1538,011,256,20,5,maite,Experiment_EEG_version,20,
Living_Things,../experiment_stimuli/bw_bc_bl/Living_Things/Birds/partridge_4.jpg,Birds,0,partridge,0,33,33,59,147.349565941,V_nV,1,147.354385759,148.592171807,0,2,1.13268302637,149.745429407,2,0,1.4433825654,5,6.5,32,bw,99.782859136,2019_may_28_1538,011,256,20,5,maite,Experiment_EEG_version,20,
Nonliving_Things,../experiment_stimuli/bw_bc_bl/Nonliving_Things/Buildings/mill_17.jpg,Buildings,0,mill,0,34,34,53,152.921680625,nV_V,1,152.927548059,154.154264442,1,1,0.671686402988,154.846501513,2,0,0.671678286279,5,6.0,32,bw,99.782859136,2019_may_28_1538,011,256,20,5,maite,Experiment_EEG_version,20,
Nonliving_Things,../experiment_stimuli/bw_bc_bl/Nonliving_Things/Tools/hammer_15.jpg,Tools,0,hammer,0,35,35,37,157.251092283,V_nV,2,157.256067975,158.483677739,1,2,0.641623284668,159.14586474,1,1,0.260784987127,5,6.0,32,bw,99.782859136,2019_may_28_1538,011,256,20,5,maite,Experiment_EEG_version,20,
Nonliving_Things,../experiment_stimuli/bw_bc_bl/Nonliving_Things/Furniture/bed_10.jpg,Furniture,0,bed,0,36,36,5,161.139547338,nV_V,1,161.144325289,162.382185839,1,1,1.09260369814,163.495330983,3,0,0.260790607193,5,6.0,32,bw,99.782859136,2019_may_28_1538,011,256,20,5,maite,Experiment_EEG_version,20,
Living_Things,../experiment_stimuli/bw_bc_bl/Living_Things/Animals/lynx_22.jpg,Animals,0,lynx,0,37,37,50,165.489005062,V_nV,1,165.495912607,166.721587264,0,2,0.581492145779,167.323700076,1,1,0.461232435424,5,6.0,32,bw,99.782859136,2019_may_28_1538,011,256,20,5,maite,Experiment_EEG_version,20,
Living_Things,../experiment_stimuli/bw_bc_bl/Living_Things/Animals/elephant_25.jpg,Animals,0,elephant,0,38,38,27,169.517770034,nV_V,2,169.522747451,170.760383177,0,1,3.27718935534,174.058115813,2,0,3.05687352922,5,6.0,32,bw,99.782859136,2019_may_28_1538,011,256,20,5,maite,Experiment_EEG_version,20,
Nonliving_Things,../experiment_stimuli/bw_bc_bl/Nonliving_Things/Vehicles/car_21.jpg,Vehicles,0,car,0,39,39,11,178.848061102,nV_V,1,178.852944332,180.08063043,0,2,0.691577557707,180.792759123,2,0,0.401102255564,5,6.0,32,bw,99.782859136,2019_may_28_1538,011,256,20,5,maite,Experiment_EEG_version,20,
Living_Things,../experiment_stimuli/bw_bc_bl/Living_Things/Birds/penguin_23.jpg,Birds,0,penguin,0,40,40,61,182.926916901,V_nV,1,182.931872739,184.15949812,1,1,1.40327696293,185.583325233,1,1,4.96100207139,5,6.5,32,bw,99.782859136,2019_may_28_1538,011,256,20,5,maite,Experiment_EEG_version,20,
Living_Things,../experiment_stimuli/bw_bc_bl/Living_Things/Marine_creatures/killer-whale_7.jpg,Marine_creatures,0,killer-whale,0,41,41,43,192.277253072,V_nV,1,192.283052978,193.539892711,1,1,2.86648867675,196.426947511,2,0,3.99891691748,5,6.0,32,bw,99.782859136,2019_may_28_1538,011,256,20,5,maite,Experiment_EEG_version,20,
Nonliving_Things,../experiment_stimuli/bw_bc_bl/Nonliving_Things/Buildings/house_2.jpg,Buildings,0,house,0,42,42,41,202.15872928,nV_V,1,202.164614557,203.411351641,1,1,0.511335368734,203.94323808,2,0,0.260790535714,5,6.5,32,bw,99.782859136,2019_may_28_1538,011,256,20,5,maite,Experiment_EEG_version,20,
Living_Things,../experiment_stimuli/bw_bc_bl/Living_Things/Marine_creatures/shark_24.jpg,Marine_creatures,0,shark,0,43,43,75,205.936953403,nV_V,2,205.941830894,207.179548179,1,2,0.451045923866,207.651133989,2,0,0.882138591958,5,6.0,32,bw,99.782859136,2019_may_28_1538,011,256,20,5,maite,Experiment_EEG_version,20,
Nonliving_Things,../experiment_stimuli/bw_bc_bl/Nonliving_Things/Musical_Inst/drum_15.jpg,Musical_Inst,0,drum,0,44,44,25,210.266353682,nV_V,1,210.271140027,211.498945796,1,1,0.832030693069,212.351524623,1,1,0.761878133984,5,6.0,32,bw,99.782859136,2019_may_28_1538,011,256,20,5,maite,Experiment_EEG_version,20,
Living_Things,../experiment_stimuli/bw_bc_bl/Living_Things/Birds/pelican_2.jpg,Birds,0,pelican,0,45,45,60,214.846315349,V_nV,1,214.851231775,216.108974803,1,1,0.56144770002,216.690965175,2,0,0.611594729824,5,7.0,32,bw,99.782859136,2019_may_28_1538,011,256,20,5,maite,Experiment_EEG_version,20,
Nonliving_Things,../experiment_stimuli/bw_bc_bl/Nonliving_Things/Kitchen_Uten/teapot_9.jpg,Kitchen_Uten,0,teapot,0,46,46,83,219.035418599,nV_V,1,219.042469539,220.288044212,0,2,0.932253449457,221.240910396,1,1,1.27299340791,5,6.0,32,bw,99.782859136,2019_may_28_1538,011,256,20,5,maite,Experiment_EEG_version,20,
Nonliving_Things,../experiment_stimuli/bw_bc_bl/Nonliving_Things/Kitchen_Uten/small-saucepan_3.jpg,Kitchen_Uten,0,small-saucepan,0,47,47,77,224.246765671,V_nV,2,224.251672191,225.509416427,1,2,1.4734340827,227.003384899,3,0,2.94663254404,5,6.0,32,bw,99.782859136,2019_may_28_1538,011,256,20,5,maite,Experiment_EEG_version,20,
Living_Things,../experiment_stimuli/bw_bc_bl/Living_Things/Birds/pigeon_12.jpg,Birds,0,pigeon,0,48,48,63,231.682925072,nV_V,2,231.687746275,232.92552501,1,2,0.561481582699,233.507570602,3,0,0.290851545287,5,6.5,32,bw,99.782859136,2019_may_28_1538,011,256,20,5,maite,Experiment_EEG_version,20,
Nonliving_Things,../experiment_stimuli/bw_bc_bl/Nonliving_Things/Musical_Inst/violin_15.jpg,Musical_Inst,0,violin,0,49,49,92,235.531286466,V_nV,2,235.536232121,236.763863844,1,2,1.37320196512,238.157640822,2,0,1.85425705696,5,6.0,32,bw,99.782859136,2019_may_28_1538,011,256,20,5,maite,Experiment_EEG_version,20,
Nonliving_Things,../experiment_stimuli/bw_bc_bl/Nonliving_Things/Furniture/rocking-chair_16.jpg,Furniture,0,rocking-chair,0,50,50,69,241.744799949,V_nV,2,241.749823652,242.977375488,1,2,0.581496036611,243.579433144,2,0,0.280852977652,5,8.0,32,bw,99.782859136,2019_may_28_1538,011,256,20,5,maite,Experiment_EEG_version,20,
Living_Things,../experiment_stimuli/bw_bc_bl/Living_Things/Insects/butterfly_15.jpg,Insects,0,butterfly,0,51,51,10,245.593160199,V_nV,1,245.598097328,246.825738163,1,1,0.661683700513,247.507996223,3,0,0.290852451231,5,6.5,32,bw,99.782859136,2019_may_28_1538,011,256,20,5,maite,Experiment_EEG_version,20,
Living_Things,../experiment_stimuli/bw_bc_bl/Living_Things/Birds/barn-owl_16.jpg,Birds,0,barn-owl,0,52,52,4,249.531721974,nV_V,2,249.537742293,250.764311302,0,1,1.20286916406,251.987738623,1,1,0.531405370915,5,6.0,32,bw,99.782859136,2019_may_28_1538,011,256,20,5,maite,Experiment_EEG_version,20,
Nonliving_Things,../experiment_stimuli/bw_bc_bl/Nonliving_Things/Kitchen_Uten/frying-pan_16.jpg,Kitchen_Uten,0,frying-pan,0,53,53,31,254.251988782,V_nV,2,254.257919911,255.514632853,1,2,0.61158703058,256.146775266,3,0,0.180605191737,5,6.5,32,bw,99.782859136,2019_may_28_1538,011,256,20,5,maite,Experiment_EEG_version,20,
Living_Things,../experiment_stimuli/bw_bc_bl/Living_Things/Animals/cat_4.jpg,Animals,0,cat,0,54,54,13,258.060276437,V_nV,1,258.065219408,259.302892599,1,1,0.791968627833,260.115396373,2,0,0.791945379926,5,6.5,32,bw,99.782859136,2019_may_28_1538,011,256,20,5,maite,Experiment_EEG_version,20,
Nonliving_Things,../experiment_stimuli/bw_bc_bl/Nonliving_Things/Vehicles/train_18.jpg,Vehicles,0,train,0,55,55,87,262.640215672,nV_V,1,262.645026897,263.882828444,0,2,1.50349565921,265.406870816,1,1,1.45340976771,5,6.0,32,bw,99.782859136,2019_may_28_1538,011,256,20,5,maite,Experiment_EEG_version,20,
Living_Things,../experiment_stimuli/bw_bc_bl/Living_Things/Marine_creatures/crab_20.jpg,Marine_creatures,0,crab,0,56,56,21,268.593173093,nV_V,2,268.598657884,269.845789049,0,1,3.15709965024,273.023440954,1,1,0.521358007099,5,7.0,32,bw,99.782859136,2019_may_28_1538,011,256,20,5,maite,Experiment_EEG_version,20,
Nonliving_Things,../experiment_stimuli/bw_bc_bl/Nonliving_Things/Vehicles/plane_7.jpg,Vehicles,0,plane,0,57,57,64,275.277726643,V_nV,2,275.283863228,276.560387288,1,2,2.73617610708,279.317169743,1,1,0.852076714393,5,7.5,32,bw,99.782859136,2019_may_28_1538,011,256,20,5,maite,Experiment_EEG_version,20,
Nonliving_Things,../experiment_stimuli/bw_bc_bl/Nonliving_Things/Tools/axe_13.jpg,Tools,0,axe,0,58,58,3,281.902107441,nV_V,1,281.906937755,283.224877034,1,1,2.32530024298,285.570740254,2,0,0.320930159185,5,7.0,32,bw,99.782859136,2019_may_28_1538,011,256,20,5,maite,Experiment_EEG_version,20,
Nonliving_Things,../experiment_stimuli/bw_bc_bl/Nonliving_Things/Buildings/factory_26.jpg,Buildings,0,factory,0,59,59,28,287.624539821,V_nV,2,287.629721777,288.937298889,1,2,1.95447845617,290.912372776,2,0,1.15273047611,5,7.5,32,bw,99.782859136,2019_may_28_1538,011,256,20,5,maite,Experiment_EEG_version,20,
Nonliving_Things,../experiment_stimuli/bw_bc_bl/Nonliving_Things/Furniture/wardrobe_14.jpg,Furniture,0,wardrobe,0,60,60,93,293.797956232,V_nV,2,293.803978931,295.100711153,1,2,0.651666757418,295.772916038,3,0,0.180612443481,5,6.5,32,bw,99.782859136,2019_may_28_1538,011,256,20,5,maite,Experiment_EEG_version,20,
Living_Things,../experiment_stimuli/bw_bc_bl/Living_Things/Animals/armadillo_5.jpg,Animals,0,armadillo,0,61,61,1,297.686413765,V_nV,1,297.691799906,298.969112319,1,1,0.56144833914,299.551141341,3,0,0.210718437331,5,6.5,32,bw,99.782859136,2019_may_28_1538,011,256,20,5,maite,Experiment_EEG_version,20,
Living_Things,../experiment_stimuli/bw_bc_bl/Living_Things/Birds/magpie_25.jpg,Birds,0,magpie,0,62,62,51,301.49470439,V_nV,1,301.499627861,302.737300635,0,2,0.992384234676,303.75023873,1,1,0.761883321684,5,6.0,32,bw,99.782859136,2019_may_28_1538,011,256,20,5,maite,Experiment_EEG_version,20,
Living_Things,../experiment_stimuli/bw_bc_bl/Living_Things/Birds/sparrow_1.jpg,Birds,0,sparrow,0,63,63,79,306.245022899,nV_V,2,306.249832278,307.517689887,1,2,0.59151384444,308.129769166,3,0,0.240748973098,5,6.0,32,bw,99.782859136,2019_may_28_1538,011,256,20,5,maite,Experiment_EEG_version,20,
Nonliving_Things,../experiment_stimuli/bw_bc_bl/Nonliving_Things/Furniture/filling-cabinet_6.jpg,Furniture,0,filling-cabinet,0,64,64,29,310.103430731,nV_V,1,310.108261862,311.34601412,1,1,0.531379852444,311.897965884,2,0,0.19062785292,5,6.0,32,bw,99.782859136,2019_may_28_1538,011,256,20,5,maite,Experiment_EEG_version,20,
Living_Things,../experiment_stimuli/bw_bc_bl/Living_Things/Insects/dragonfly_1.jpg,Insects,0,dragonfly,0,65,65,24,313.821494502,V_nV,1,313.826311091,315.054080612,0,2,0.501160217682,315.585828591,1,1,0.210681227269,5,6.0,32,bw,99.782859136,2019_may_28_1538,011,256,20,5,maite,Experiment_EEG_version,20,
Nonliving_Things,../experiment_stimuli/bw_bc_bl/Nonliving_Things/Buildings/church_18.jpg,Buildings,0,church,0,66,66,17,317.529550348,V_nV,2,317.534342141,318.772158451,1,2,0.491311817197,319.284053424,1,1,0.39092655573,5,7.0,32,bw,99.782859136,2019_may_28_1538,011,256,20,5,maite,Experiment_EEG_version,20,
Nonliving_Things,../experiment_stimuli/bw_bc_bl/Nonliving_Things/Buildings/granary_3.jpg,Buildings,0,granary,0,67,67,35,321.418018351,nV_V,1,321.423014253,322.690681237,1,1,0.872129051248,323.583348288,1,1,1.08263206296,5,6.5,32,bw,99.782859136,2019_may_28_1538,011,256,20,5,maite,Experiment_EEG_version,20,
Nonliving_Things,../experiment_stimuli/bw_bc_bl/Nonliving_Things/Kitchen_Uten/cup_15.jpg,Kitchen_Uten,0,cup,0,68,68,22,326.398846078,V_nV,2,326.403689216,327.691551132,1,2,0.521370995324,328.233462988,3,0,0.250764630735,5,6.5,32,bw,99.782859136,2019_may_28_1538,011,256,20,5,maite,Experiment_EEG_version,20,
Living_Things,../experiment_stimuli/bw_bc_bl/Living_Things/Animals/giraffe_26.jpg,Animals,0,giraffe,0,69,69,32,330.217136507,nV_V,2,330.222067166,331.479787022,1,2,0.501306038583,332.00164686,3,0,0.170594018884,5,6.0,32,bw,99.782859136,2019_may_28_1538,011,256,20,5,maite,Experiment_EEG_version,20,
Nonliving_Things,../experiment_stimuli/bw_bc_bl/Nonliving_Things/Furniture/lamp_11.jpg,Furniture,0,lamp,0,70,70,46,333.905160971,V_nV,2,333.910012624,335.147761856,1,2,0.541404061951,335.709730225,3,0,0.13055240456,5,6.0,32,bw,99.782859136,2019_may_28_1538,011,256,20,5,maite,Experiment_EEG_version,20,
Living_Things,../experiment_stimuli/bw_bc_bl/Living_Things/Birds/toucan_16.jpg,Birds,0,toucan,0,71,71,85,337.573141098,V_nV,1,337.578092369,338.805714664,0,2,1.67386210291,340.500154077,1,1,0.371031475719,5,6.5,32,bw,99.782859136,2019_may_28_1538,011,256,20,5,maite,Experiment_EEG_version,20,
Nonliving_Things,../experiment_stimuli/bw_bc_bl/Nonliving_Things/Furniture/sofa_11.jpg,Furniture,0,sofa,0,72,72,78,342.60407148,nV_V,1,342.608897163,343.846695747,1,1,0.621577376267,344.488811897,3,0,0.23074903735,5,7.0,32,bw,99.782859136,2019_may_28_1538,011,256,20,5,maite,Experiment_EEG_version,20,
Nonliving_Things,../experiment_stimuli/bw_bc_bl/Nonliving_Things/Kitchen_Uten/saucepan_13.jpg,Kitchen_Uten,0,saucepan,0,73,73,71,346.452436065,V_nV,2,346.457253405,347.68502128,1,2,1.17279574904,348.878437651,1,1,1.96453289897,5,6.5,32,bw,99.782859136,2019_may_28_1538,011,256,20,5,maite,Experiment_EEG_version,20,
Nonliving_Things,../experiment_stimuli/bw_bc_bl/Nonliving_Things/Vehicles/motorbike_17.jpg,Vehicles,0,motorbike,0,74,74,54,352.575748685,nV_V,1,352.580734358,353.828377584,1,1,0.501157221152,354.350123153,3,0,0.401091263397,5,6.0,32,bw,99.782859136,2019_may_28_1538,011,256,20,5,maite,Experiment_EEG_version,20,
Nonliving_Things,../experiment_stimuli/bw_bc_bl/Nonliving_Things/Buildings/cathedral_11.jpg,Buildings,0,cathedral,0,75,75,14,356.484247488,V_nV,2,356.489196842,357.716828629,1,2,0.701755088754,358.439133013,1,1,0.310895818053,5,6.5,32,bw,99.782859136,2019_may_28_1538,011,256,20,5,maite,Experiment_EEG_version,20,
Nonliving_Things,../experiment_stimuli/bw_bc_bl/Nonliving_Things/Musical_Inst/trumpet_3.jpg,Musical_Inst,0,trumpet,0,76,76,88,360.482944205,V_nV,2,360.488188363,361.745590205,1,2,0.481277250219,362.247408518,3,0,0.14052501414,5,6.0,32,bw,99.782859136,2019_may_28_1538,011,256,20,5,maite,Experiment_EEG_version,20,
Living_Things,../experiment_stimuli/bw_bc_bl/Living_Things/Birds/kiwi_22.jpg,Birds,0,kiwi,0,77,77,44,364.120849007,nV_V,2,364.125864071,365.353430892,0,1,1.25296131149,366.62697083,2,0,0.20066624647,5,6.5,32,bw,99.782859136,2019_may_28_1538,011,256,20,5,maite,Experiment_EEG_version,20,
Nonliving_Things,../experiment_stimuli/bw_bc_bl/Nonliving_Things/Furniture/armchair_15.jpg,Furniture,0,armchair,0,78,78,2,368.560505263,nV_V,1,368.566035522,369.793085889,0,2,0.972344679991,370.785975304,1,1,0.58252746542,5,6.5,32,bw,99.782859136,2019_may_28_1538,011,256,20,5,maite,Experiment_EEG_version,20,
Living_Things,../experiment_stimuli/bw_bc_bl/Living_Things/Birds/ostrich_24.jpg,Birds,0,ostrich,0,79,79,56,373.100371614,V_nV,1,373.105334291,374.342974637,1,1,0.541405926459,374.904934322,2,0,0.701747942483,5,6.0,32,bw,99.782859136,2019_may_28_1538,011,256,20,5,maite,Experiment_EEG_version,20,
Nonliving_Things,../experiment_stimuli/bw_bc_bl/Nonliving_Things/Musical_Inst/tuba_2.jpg,Musical_Inst,0,tuba,0,80,80,89,377.339592413,nV_V,1,377.344710682,378.572170888,1,1,0.551423580153,379.144156238,3,0,0.23072167323,5,8.0,32,bw,99.782859136,2019_may_28_1538,011,256,20,5,maite,Experiment_EEG_version,20,
Living_Things,../experiment_stimuli/bw_bc_bl/Living_Things/Animals/horse_10.jpg,Animals,0,horse,0,81,81,40,381.107779996,nV_V,2,381.112774401,382.340360952,1,2,1.01245024451,383.373385406,1,1,0.28086624085,5,6.5,32,bw,99.782859136,2019_may_28_1538,011,256,20,5,maite,Experiment_EEG_version,20,
Nonliving_Things,../experiment_stimuli/bw_bc_bl/Nonliving_Things/Furniture/bookcase_3.jpg,Furniture,0,bookcase,0,82,82,8,385.387083529,nV_V,1,385.392128434,386.639712311,1,1,1.26297291578,387.923460528,3,0,0.741834721761,5,6.0,32,bw,99.782859136,2019_may_28_1538,011,256,20,5,maite,Experiment_EEG_version,20,
Living_Things,../experiment_stimuli/bw_bc_bl/Living_Things/Marine_creatures/pomfret_5.jpg,Marine_creatures,0,pomfret,0,83,83,65,390.397984239,nV_V,2,390.403115192,391.630564579,1,2,0.882177358493,392.533285722,1,1,0.350990529638,5,6.5,32,bw,99.782859136,2019_may_28_1538,011,256,20,5,maite,Experiment_EEG_version,20,
Living_Things,../experiment_stimuli/bw_bc_bl/Living_Things/Animals/tiger_4.jpg,Animals,0,tiger,0,84,84,84,394.617157209,nV_V,2,394.622261741,395.859767319,0,1,3.85862182896,399.738969289,2,0,1.33312655822,5,6.0,32,bw,99.782859136,2019_may_28_1538,011,256,20,5,maite,Experiment_EEG_version,20,
Living_Things,../experiment_stimuli/bw_bc_bl/Living_Things/Marine_creatures/lobster_22.jpg,Marine_creatures,0,lobster,0,85,85,49,402.804991642,V_nV,1,402.811789989,404.037542467,1,1,0.641625747317,404.699723507,2,0,0.220698031131,5,6.0,32,bw,99.782859136,2019_may_28_1538,011,256,20,5,maite,Experiment_EEG_version,20,
Living_Things,../experiment_stimuli/bw_bc_bl/Living_Things/Birds/duck_8.jpg,Birds,0,duck,0,86,86,26,406.653316832,V_nV,1,406.658578265,407.876539119,1,1,0.561451101908,408.457882282,1,1,2.94663387095,5,7.0,32,bw,99.782859136,2019_may_28_1538,011,256,20,5,maite,Experiment_EEG_version,20,
Living_Things,../experiment_stimuli/bw_bc_bl/Living_Things/Animals/rhino_18.jpg,Animals,0,rhino,0,87,87,68,413.137417286,nV_V,2,413.142593073,414.38002593,1,2,1.03247529594,415.433067871,2,0,0.451207357692,5,6.0,32,bw,99.782859136,2019_may_28_1538,011,256,20,5,maite,Experiment_EEG_version,20,
Living_Things,../experiment_stimuli/bw_bc_bl/Living_Things/Marine_creatures/whale_20.jpg,Marine_creatures,0,whale,0,88,88,94,417.617163408,nV_V,2,417.624022588,418.84973965,1,2,1.13269403018,420.00300387,1,1,0.601532723522,5,7.0,32,bw,99.782859136,2019_may_28_1538,011,256,20,5,maite,Experiment_EEG_version,20,
Living_Things,../experiment_stimuli/bw_bc_bl/Living_Things/Birds/hummingbird_25.jpg,Birds,0,hummingbird,0,89,89,42,422.337418197,V_nV,1,422.342731964,423.590050066,1,1,0.671688087052,424.282294569,2,0,0.240743792616,5,6.5,32,bw,99.782859136,2019_may_28_1538,011,256,20,5,maite,Experiment_EEG_version,20,
Living_Things,../experiment_stimuli/bw_bc_bl/Living_Things/Insects/ladybird_8.jpg,Insects,0,ladybird,0,90,90,45,426.255936454,nV_V,2,426.261091907,427.488520463,0,1,0.791966766585,428.3010588,1,1,0.441179865506,5,7.5,32,bw,99.782859136,2019_may_28_1538,011,256,20,5,maite,Experiment_EEG_version,20,
Nonliving_Things,../experiment_stimuli/bw_bc_bl/Nonliving_Things/Furniture/Chest-of-drawers_5.jpg,Furniture,0,Chest-of-drawers,0,91,91,0,430.475150705,nV_V,1,430.480449848,431.737764168,1,1,4.31962155341,436.07794242,3,0,1.60374396038,5,7.0,32,bw,99.782859136,2019_may_28_1538,011,256,20,5,maite,Experiment_EEG_version,20,
Nonliving_Things,../experiment_stimuli/bw_bc_bl/Nonliving_Things/Vehicles/van_9.jpg,Vehicles,0,van,0,92,92,91,439.424571656,V_nV,2,439.429807499,440.657150925,1,2,0.601539565483,441.279238399,2,0,0.461317833047,5,7.5,32,bw,99.782859136,2019_may_28_1538,011,256,20,5,maite,Experiment_EEG_version,20,
Living_Things,../experiment_stimuli/bw_bc_bl/Living_Things/Birds/goose_17.jpg,Birds,0,goose,0,93,93,34,443.473370701,V_nV,1,443.478738941,444.715974687,0,2,3.01678588171,447.75336609,1,1,0.711770001799,5,6.0,32,bw,99.782859136,2019_may_28_1538,011,256,20,5,maite,Experiment_EEG_version,20,
Nonliving_Things,../experiment_stimuli/bw_bc_bl/Nonliving_Things/Furniture/chair_15.jpg,Furniture,0,chair,0,94,94,15,450.197994692,nV_V,1,450.203633728,451.460639067,1,1,0.521348954411,452.002559242,3,0,0.270809249254,5,6.0,32,bw,99.782859136,2019_may_28_1538,011,256,20,5,maite,Experiment_EEG_version,20,
Living_Things,../experiment_stimuli/bw_bc_bl/Living_Things/Marine_creatures/sperm-whale_20.jpg,Marine_creatures,0,sperm-whale,0,95,95,80,454.016307895,V_nV,1,454.023548258,455.258894674,0,2,1.19281578576,456.472272342,2,0,0.431157494429,5,6.0,32,bw,99.782859136,2019_may_28_1538,011,256,20,5,maite,Experiment_EEG_version,20,
