category,probe_path,subcategory,fixation_duration,label,trials.thisRepN,trials.thisTrialN,trials.thisN,trials.thisIndex,image_onset_time,response_window,correctAns,probe_onset,discrim_resptime,response.corr,response.keys,response.rt,visible_resptime,visible.keys,visible.corr,visible.rt,probeFrames,jitter2,n_square,experiment_color,frameRate,date,session,image_size,premask_dur,probeFrames,participant,expName,postmask_dur,
Living_Things,../experiment_stimuli/bw_bc_bl/Living_Things/Insects/ladybird_10.jpg,Insects,0,ladybird,0,0,0,45,3.7476297078,V_nV,1,3.78364580887,5.0503615319,0,2,1.26297120558,6.34417682956,1,1,0.381059997366,5,6.5,32,bw,99.7798159459,2019_may_14_1059,017,256,20,5,iñaki,Experiment_EEG_version,20,
Living_Things,../experiment_stimuli/bw_bc_bl/Living_Things/Birds/partridge_18.jpg,Birds,0,partridge,0,1,1,59,8.45786548709,nV_V,2,8.47480030113,9.77061964886,1,2,1.64381407102,11.4350335939,3,0,0.280838522944,5,6.0,32,bw,99.7798159459,2019_may_14_1059,017,256,20,5,iñaki,Experiment_EEG_version,20,
Living_Things,../experiment_stimuli/bw_bc_bl/Living_Things/Marine_creatures/dolphin_8.jpg,Marine_creatures,0,dolphin,0,2,2,23,13.4487078338,V_nV,1,13.4688259932,14.7414250082,1,1,1.43345368881,16.1954372333,1,1,0.300870980369,5,6.0,32,bw,99.7798159459,2019_may_14_1059,017,256,20,5,iñaki,Experiment_EEG_version,20,
Nonliving_Things,../experiment_stimuli/bw_bc_bl/Nonliving_Things/Musical_Inst/violin_17.jpg,Musical_Inst,0,violin,0,3,3,92,18.2291014429,V_nV,2,18.2509871785,19.5418581159,1,2,0.571465841844,20.1338735808,3,0,0.250778306799,5,6.0,32,bw,99.7798159459,2019_may_14_1059,017,256,20,5,iñaki,Experiment_EEG_version,20,
Nonliving_Things,../experiment_stimuli/bw_bc_bl/Nonliving_Things/Kitchen_Uten/teapot_26.jpg,Kitchen_Uten,0,teapot,0,4,4,83,22.1175523369,nV_V,1,22.1363526204,23.4002399181,1,1,0.711933266604,24.1327514987,3,0,1.06255113211,5,6.0,32,bw,99.7798159459,2019_may_14_1059,017,256,20,5,iñaki,Experiment_EEG_version,20,
Nonliving_Things,../experiment_stimuli/bw_bc_bl/Nonliving_Things/Musical_Inst/guitar_3.jpg,Musical_Inst,0,guitar,0,5,5,36,26.9280043687,V_nV,2,26.951973522,28.2006750107,1,2,0.701740961114,28.9229981207,1,1,0.270799599355,5,6.0,32,bw,99.7798159459,2019_may_14_1059,017,256,20,5,iñaki,Experiment_EEG_version,20,
Nonliving_Things,../experiment_stimuli/bw_bc_bl/Nonliving_Things/Vehicles/tractor_7.jpg,Vehicles,0,tractor,0,6,6,86,30.9267043419,V_nV,2,30.9418782939,32.1993667359,1,2,0.872140934225,33.0920953227,3,0,0.260780667304,5,6.5,32,bw,99.7798159459,2019_may_14_1059,017,256,20,5,iñaki,Experiment_EEG_version,20,
Living_Things,../experiment_stimuli/bw_bc_bl/Living_Things/Birds/penguin_18.jpg,Birds,0,penguin,0,7,7,61,35.0857383647,nV_V,2,35.1024124005,36.3283380725,1,2,0.962312737014,37.3112090264,1,1,0.310741910595,5,6.0,32,bw,99.7798159459,2019_may_14_1059,017,256,20,5,iñaki,Experiment_EEG_version,20,
Living_Things,../experiment_stimuli/bw_bc_bl/Living_Things/Birds/barn-owl_0.jpg,Birds,0,barn-owl,0,8,8,4,39.3550158125,V_nV,1,39.3756446825,40.6076438916,1,1,1.27299197932,41.9011980692,1,1,0.260816057795,5,6.5,32,bw,99.7798159459,2019_may_14_1059,017,256,20,5,iñaki,Experiment_EEG_version,20,
Living_Things,../experiment_stimuli/bw_bc_bl/Living_Things/Marine_creatures/crab_25.jpg,Marine_creatures,0,crab,0,9,9,21,43.8948794676,V_nV,1,43.9094242331,45.1775761314,1,1,2.50566559267,47.7037834671,1,1,0.240759867709,5,6.0,32,bw,99.7798159459,2019_may_14_1059,017,256,20,5,iñaki,Experiment_EEG_version,20,
Nonliving_Things,../experiment_stimuli/bw_bc_bl/Nonliving_Things/Buildings/mill_2.jpg,Buildings,0,mill,0,10,10,53,49.6774472654,nV_V,1,49.6933605301,50.9902044231,1,1,2.40545324946,53.4162113296,1,1,0.651655133523,5,6.5,32,bw,99.7798159459,2019_may_14_1059,017,256,20,5,iñaki,Experiment_EEG_version,20,
Nonliving_Things,../experiment_stimuli/bw_bc_bl/Nonliving_Things/Kitchen_Uten/frying-pan_13.jpg,Kitchen_Uten,0,frying-pan,0,11,11,31,55.8007650624,V_nV,2,55.8159792996,57.1235422611,1,2,0.761875784432,57.9059830479,3,0,0.210693403613,5,7.5,32,bw,99.7798159459,2019_may_14_1059,017,256,20,5,iñaki,Experiment_EEG_version,20,
Living_Things,../experiment_stimuli/bw_bc_bl/Living_Things/Birds/toucan_11.jpg,Birds,0,toucan,0,12,12,85,59.849561698,V_nV,1,59.8671979417,61.1522947513,1,1,2.21506695356,63.3879388237,2,0,0.230716533901,5,6.5,32,bw,99.7798159459,2019_may_14_1059,017,256,20,5,iñaki,Experiment_EEG_version,20,
Nonliving_Things,../experiment_stimuli/bw_bc_bl/Nonliving_Things/Furniture/armchair_21.jpg,Furniture,0,armchair,0,13,13,2,65.3515279993,V_nV,2,65.3696638222,66.6442342637,1,2,1.80397795769,68.4687701637,3,0,0.160582268029,5,6.5,32,bw,99.7798159459,2019_may_14_1059,017,256,20,5,iñaki,Experiment_EEG_version,20,
Living_Things,../experiment_stimuli/bw_bc_bl/Living_Things/Marine_creatures/narwhal_2.jpg,Marine_creatures,0,narwhal,0,14,14,55,70.362408687,nV_V,2,70.3723990101,71.6150411419,1,2,3.56782578694,75.2034361681,1,1,0.190659164218,5,6.0,32,bw,99.7798159459,2019_may_14_1059,017,256,20,5,iñaki,Experiment_EEG_version,20,
Living_Things,../experiment_stimuli/bw_bc_bl/Living_Things/Birds/seagull_12.jpg,Birds,0,seagull,0,15,15,74,77.1271231855,nV_V,2,77.1473585012,78.4098096239,1,2,2.81633926334,81.2467020479,1,1,0.230718891253,5,6.0,32,bw,99.7798159459,2019_may_14_1059,017,256,20,5,iñaki,Experiment_EEG_version,20,
Living_Things,../experiment_stimuli/bw_bc_bl/Living_Things/Birds/sparrow_13.jpg,Birds,0,sparrow,0,16,16,79,83.2103384706,nV_V,2,83.223481576,84.5130899751,1,2,1.2228807006,85.756505953,2,0,0.220690771705,5,6.0,32,bw,99.7798159459,2019_may_14_1059,017,256,20,5,iñaki,Experiment_EEG_version,20,
Living_Things,../experiment_stimuli/bw_bc_bl/Living_Things/Insects/dragonfly_11.jpg,Insects,0,dragonfly,0,17,17,24,87.7101159632,V_nV,1,87.7303973344,89.0128605652,1,1,1.38324884389,90.4166474798,2,0,0.170583098312,5,6.0,32,bw,99.7798159459,2019_may_14_1059,017,256,20,5,iñaki,Experiment_EEG_version,20,
Nonliving_Things,../experiment_stimuli/bw_bc_bl/Nonliving_Things/Furniture/lectern_4.jpg,Furniture,0,lectern,0,18,18,47,92.3201398204,nV_V,1,92.3376128108,93.6128506226,1,1,0.832051091304,94.4654689943,2,0,0.350979522336,5,6.5,32,bw,99.7798159459,2019_may_14_1059,017,256,20,5,iñaki,Experiment_EEG_version,20,
Living_Things,../experiment_stimuli/bw_bc_bl/Living_Things/Animals/cat_22.jpg,Animals,0,cat,0,19,19,13,96.5493350224,V_nV,1,96.5607405848,97.8220014916,1,1,1.99456468294,99.8371170005,2,0,0.200647829624,5,7.0,32,bw,99.7798159459,2019_may_14_1059,017,256,20,5,iñaki,Experiment_EEG_version,20,
Nonliving_Things,../experiment_stimuli/bw_bc_bl/Nonliving_Things/Furniture/Chest-of-drawers_9.jpg,Furniture,0,Chest-of-drawers,0,20,20,0,101.770690252,nV_V,1,101.788530617,103.043354203,1,1,1.04249299079,104.10640188,3,0,0.180626476882,5,6.0,32,bw,99.7798159459,2019_may_14_1059,017,256,20,5,iñaki,Experiment_EEG_version,20,
Living_Things,../experiment_stimuli/bw_bc_bl/Living_Things/Birds/pigeon_8.jpg,Birds,0,pigeon,0,21,21,63,106.019923829,V_nV,1,106.037412455,107.262525781,1,1,0.912206251582,108.195282133,1,1,0.220695640193,5,6.0,32,bw,99.7798159459,2019_may_14_1059,017,256,20,5,iñaki,Experiment_EEG_version,20,
Living_Things,../experiment_stimuli/bw_bc_bl/Living_Things/Animals/cow_19.jpg,Animals,0,cow,0,22,22,20,110.148899207,V_nV,1,110.173616259,111.431584691,0,2,1.04251566716,112.494721905,1,1,0.210689666797,5,7.5,32,bw,99.7798159459,2019_may_14_1059,017,256,20,5,iñaki,Experiment_EEG_version,20,
Nonliving_Things,../experiment_stimuli/bw_bc_bl/Nonliving_Things/Furniture/chair_7.jpg,Furniture,0,chair,0,23,23,15,114.438217537,nV_V,1,114.453847189,115.720906566,1,1,0.862102544168,116.603575451,2,0,0.20065379946,5,6.0,32,bw,99.7798159459,2019_may_14_1059,017,256,20,5,iñaki,Experiment_EEG_version,20,
Nonliving_Things,../experiment_stimuli/bw_bc_bl/Nonliving_Things/Vehicles/bus_11.jpg,Vehicles,0,bus,0,24,24,9,118.537127819,V_nV,2,118.556057943,119.809815258,1,2,0.541420885129,120.371790653,3,0,0.150538682239,5,6.5,32,bw,99.7798159459,2019_may_14_1059,017,256,20,5,iñaki,Experiment_EEG_version,20,
Living_Things,../experiment_stimuli/bw_bc_bl/Living_Things/Birds/pelican_24.jpg,Birds,0,pelican,0,25,25,60,122.255207556,V_nV,1,122.269663458,123.497813764,0,2,0.741838631395,124.260212518,1,1,0.210673907655,5,6.5,32,bw,99.7798159459,2019_may_14_1059,017,256,20,5,iñaki,Experiment_EEG_version,20,
Living_Things,../experiment_stimuli/bw_bc_bl/Living_Things/Birds/rooster_13.jpg,Birds,0,rooster,0,26,26,70,126.203848904,nV_V,2,126.228005385,127.476463802,0,1,2.95665425772,130.463691434,1,1,0.180637424113,5,7.5,32,bw,99.7798159459,2019_may_14_1059,017,256,20,5,iñaki,Experiment_EEG_version,20,
Living_Things,../experiment_stimuli/bw_bc_bl/Living_Things/Animals/tiger_9.jpg,Animals,0,tiger,0,27,27,84,132.377218037,nV_V,2,132.396129311,133.669925595,1,2,1.41329922556,135.103765568,2,0,0.200650258106,5,6.5,32,bw,99.7798159459,2019_may_14_1059,017,256,20,5,iñaki,Experiment_EEG_version,20,
Living_Things,../experiment_stimuli/bw_bc_bl/Living_Things/Animals/lynx_10.jpg,Animals,0,lynx,0,28,28,50,137.03734665,nV_V,2,137.048829283,138.310022397,1,2,1.53356063104,139.864117448,3,0,0.330933519755,5,7.5,32,bw,99.7798159459,2019_may_14_1059,017,256,20,5,iñaki,Experiment_EEG_version,20,
Nonliving_Things,../experiment_stimuli/bw_bc_bl/Nonliving_Things/Furniture/sofa_7.jpg,Furniture,0,sofa,0,29,29,78,141.927975218,nV_V,1,141.943164001,143.180598568,0,2,0.441182911047,143.642346921,1,1,0.250754766108,5,6.5,32,bw,99.7798159459,2019_may_14_1059,017,256,20,5,iñaki,Experiment_EEG_version,20,
Nonliving_Things,../experiment_stimuli/bw_bc_bl/Nonliving_Things/Furniture/filling-cabinet_24.jpg,Furniture,0,filling-cabinet,0,30,30,29,145.626040914,nV_V,1,145.645724106,146.908701176,1,1,0.561469883716,147.490715311,3,0,0.260772964568,5,6.5,32,bw,99.7798159459,2019_may_14_1059,017,256,20,5,iñaki,Experiment_EEG_version,20,
Nonliving_Things,../experiment_stimuli/bw_bc_bl/Nonliving_Things/Kitchen_Uten/fondue_25.jpg,Kitchen_Uten,0,fondue,0,31,31,30,149.484405055,nV_V,1,149.501979773,150.737024401,1,1,0.872122028668,151.629707327,1,1,0.27064871398,5,6.0,32,bw,99.7798159459,2019_may_14_1059,017,256,20,5,iñaki,Experiment_EEG_version,20,
Living_Things,../experiment_stimuli/bw_bc_bl/Living_Things/Animals/turtle_24.jpg,Animals,0,turtle,0,32,32,90,153.633424845,V_nV,1,153.654363098,154.906085273,1,1,0.691724322969,155.618370402,1,1,0.210677170777,5,6.5,32,bw,99.7798159459,2019_may_14_1059,017,256,20,5,iñaki,Experiment_EEG_version,20,
Living_Things,../experiment_stimuli/bw_bc_bl/Living_Things/Animals/horse_12.jpg,Animals,0,horse,0,33,33,40,157.561983706,V_nV,1,157.571349388,158.844651979,1,1,1.142703349,160.007912011,1,1,0.21067423455,5,6.0,32,bw,99.7798159459,2019_may_14_1059,017,256,20,5,iñaki,Experiment_EEG_version,20,
Living_Things,../experiment_stimuli/bw_bc_bl/Living_Things/Birds/owl_24.jpg,Birds,0,owl,0,34,34,57,161.951500672,V_nV,1,161.97227142,163.254232869,1,1,1.85426049319,165.129053037,2,0,0.330935903534,5,7.0,32,bw,99.7798159459,2019_may_14_1059,017,256,20,5,iñaki,Experiment_EEG_version,20,
Living_Things,../experiment_stimuli/bw_bc_bl/Living_Things/Animals/elephant_12.jpg,Animals,0,elephant,0,35,35,27,167.192895957,V_nV,1,167.208279436,168.485621395,1,1,0.471246209461,168.977450001,3,0,0.250612527539,5,6.5,32,bw,99.7798159459,2019_may_14_1059,017,256,20,5,iñaki,Experiment_EEG_version,20,
Living_Things,../experiment_stimuli/bw_bc_bl/Living_Things/Birds/hen_13.jpg,Birds,0,hen,0,36,36,38,170.961080615,V_nV,1,170.979571618,172.233750945,1,1,0.491286415199,172.745615133,1,1,0.230735545105,5,6.0,32,bw,99.7798159459,2019_may_14_1059,017,256,20,5,iñaki,Experiment_EEG_version,20,
Living_Things,../experiment_stimuli/bw_bc_bl/Living_Things/Birds/magpie_20.jpg,Birds,0,magpie,0,37,37,51,174.709231459,nV_V,2,174.731293079,176.011968471,0,1,3.19718856836,179.229732951,1,1,0.180630849209,5,6.5,32,bw,99.7798159459,2019_may_14_1059,017,256,20,5,iñaki,Experiment_EEG_version,20,
Living_Things,../experiment_stimuli/bw_bc_bl/Living_Things/Animals/rhino_21.jpg,Animals,0,rhino,0,38,38,68,181.14321257,nV_V,2,181.160146384,182.455971314,1,2,1.19265292335,183.66917389,1,1,0.320907336427,5,6.0,32,bw,99.7798159459,2019_may_14_1059,017,256,20,5,iñaki,Experiment_EEG_version,20,
Nonliving_Things,../experiment_stimuli/bw_bc_bl/Nonliving_Things/Buildings/house_15.jpg,Buildings,0,house,0,39,39,41,185.723173045,V_nV,2,185.742632523,187.045951068,1,2,0.611557538738,187.678049237,3,0,0.180606785812,5,6.0,32,bw,99.7798159459,2019_may_14_1059,017,256,20,5,iñaki,Experiment_EEG_version,20,
Nonliving_Things,../experiment_stimuli/bw_bc_bl/Nonliving_Things/Furniture/bedside-table_6.jpg,Furniture,0,bedside-table,0,40,40,6,189.591617659,nV_V,1,189.606511397,190.884294382,1,1,0.541393900523,191.446278537,3,0,0.210693832196,5,6.5,32,bw,99.7798159459,2019_may_14_1059,017,256,20,5,iñaki,Experiment_EEG_version,20,
Living_Things,../experiment_stimuli/bw_bc_bl/Living_Things/Birds/hummingbird_22.jpg,Birds,0,hummingbird,0,41,41,42,193.389841931,nV_V,2,193.410537395,194.652492777,1,2,0.711770667054,195.384847052,1,1,0.210696418595,5,6.0,32,bw,99.7798159459,2019_may_14_1059,017,256,20,5,iñaki,Experiment_EEG_version,20,
Nonliving_Things,../experiment_stimuli/bw_bc_bl/Nonliving_Things/Tools/hammer_17.jpg,Tools,0,hammer,0,42,42,37,197.328400668,V_nV,2,197.344706886,198.611090821,1,2,1.01241680892,199.644071621,1,1,0.220709474583,5,6.0,32,bw,99.7798159459,2019_may_14_1059,017,256,20,5,iñaki,Experiment_EEG_version,20,
Living_Things,../experiment_stimuli/bw_bc_bl/Living_Things/Birds/kiwi_2.jpg,Birds,0,kiwi,0,43,43,44,201.597681668,V_nV,1,201.61209547,202.90041912,1,1,0.942269332358,203.863223222,3,0,0.200648363098,5,6.0,32,bw,99.7798159459,2019_may_14_1059,017,256,20,5,iñaki,Experiment_EEG_version,20,
Nonliving_Things,../experiment_stimuli/bw_bc_bl/Nonliving_Things/Furniture/bookcase_13.jpg,Furniture,0,bookcase,0,44,44,8,205.796824718,V_nV,2,205.818604087,207.069475541,1,2,0.671698579681,207.76174554,3,0,0.190651299665,5,6.0,32,bw,99.7798159459,2019_may_14_1059,017,256,20,5,iñaki,Experiment_EEG_version,20,
Living_Things,../experiment_stimuli/bw_bc_bl/Living_Things/Marine_creatures/pomfret_8.jpg,Marine_creatures,0,pomfret,0,45,45,65,209.685262951,V_nV,1,209.700740805,210.927865629,0,2,1.93442213431,212.883718133,1,1,0.140572877601,5,6.5,32,bw,99.7798159459,2019_may_14_1059,017,256,20,5,iñaki,Experiment_EEG_version,20,
Nonliving_Things,../experiment_stimuli/bw_bc_bl/Nonliving_Things/Kitchen_Uten/pot_2.jpg,Kitchen_Uten,0,pot,0,46,46,66,214.756286379,V_nV,2,214.777597615,216.028955897,1,2,0.581516900973,216.631021819,3,0,0.170592906303,5,6.5,32,bw,99.7798159459,2019_may_14_1059,017,256,20,5,iñaki,Experiment_EEG_version,20,
Living_Things,../experiment_stimuli/bw_bc_bl/Living_Things/Animals/giraffe_14.jpg,Animals,0,giraffe,0,47,47,32,218.534495119,V_nV,1,218.550496022,219.77711633,0,2,0.771931106632,220.569598014,1,1,0.180678453587,5,6.0,32,bw,99.7798159459,2019_may_14_1059,017,256,20,5,iñaki,Experiment_EEG_version,20,
Nonliving_Things,../experiment_stimuli/bw_bc_bl/Nonliving_Things/Vehicles/car_2.jpg,Vehicles,0,car,0,48,48,11,222.483089622,nV_V,1,222.506628093,223.755754399,1,1,0.842071233492,224.618404247,3,0,0.180628402042,5,6.0,32,bw,99.7798159459,2019_may_14_1059,017,256,20,5,iñaki,Experiment_EEG_version,20,
Nonliving_Things,../experiment_stimuli/bw_bc_bl/Nonliving_Things/Musical_Inst/piano__9.jpg,Musical_Inst,0,piano,0,49,49,62,226.531885449,V_nV,2,226.546527472,227.774494228,1,2,0.621574462566,228.416654937,1,1,0.190766316664,5,6.5,32,bw,99.7798159459,2019_may_14_1059,017,256,20,5,iñaki,Experiment_EEG_version,20,
Living_Things,../experiment_stimuli/bw_bc_bl/Living_Things/Marine_creatures/lobster_20.jpg,Marine_creatures,0,lobster,0,50,50,49,230.340168337,V_nV,1,230.35566763,231.612832024,1,1,0.651640069613,232.285026348,1,1,0.200658442103,5,7.5,32,bw,99.7798159459,2019_may_14_1059,017,256,20,5,iñaki,Experiment_EEG_version,20,
Nonliving_Things,../experiment_stimuli/bw_bc_bl/Nonliving_Things/Kitchen_Uten/small-saucepan_9.jpg,Kitchen_Uten,0,small-saucepan,0,51,51,77,234.218599296,nV_V,1,234.248917952,235.511315842,1,1,0.681700977788,236.223584055,1,1,0.290867477364,5,6.0,32,bw,99.7798159459,2019_may_14_1059,017,256,20,5,iñaki,Experiment_EEG_version,20,
Living_Things,../experiment_stimuli/bw_bc_bl/Living_Things/Animals/tapir_24.jpg,Animals,0,tapir,0,52,52,82,238.24734929,V_nV,1,238.262962224,239.560106587,1,1,1.08256642835,240.663256784,2,0,0.230735221819,5,6.0,32,bw,99.7798159459,2019_may_14_1059,017,256,20,5,iñaki,Experiment_EEG_version,20,
Living_Things,../experiment_stimuli/bw_bc_bl/Living_Things/Marine_creatures/manatee_17.jpg,Marine_creatures,0,manatee,0,53,53,52,242.626872707,nV_V,2,242.644865792,243.929600971,1,2,0.82200976531,244.772198671,3,0,0.21067591157,5,6.0,32,bw,99.7798159459,2019_may_14_1059,017,256,20,5,iñaki,Experiment_EEG_version,20,
Nonliving_Things,../experiment_stimuli/bw_bc_bl/Nonliving_Things/Buildings/castle_3.jpg,Buildings,0,castle,0,54,54,12,246.715762058,V_nV,2,246.732543111,247.998457849,1,2,0.781914136547,248.800914353,1,1,0.250757927541,5,6.5,32,bw,99.7798159459,2019_may_14_1059,017,256,20,5,iñaki,Experiment_EEG_version,20,
Living_Things,../experiment_stimuli/bw_bc_bl/Living_Things/Animals/armadillo_9.jpg,Animals,0,armadillo,0,55,55,1,250.784605151,V_nV,1,250.795220615,252.08734885,1,1,0.832049230579,252.939938903,2,0,0.280822583591,5,6.0,32,bw,99.7798159459,2019_may_14_1059,017,256,20,5,iñaki,Experiment_EEG_version,20,
Nonliving_Things,../experiment_stimuli/bw_bc_bl/Nonliving_Things/Furniture/couch_15.jpg,Furniture,0,couch,0,56,56,19,254.95367283,nV_V,1,254.976708632,256.256400482,1,1,0.731812673621,257.008762109,3,0,0.260782599973,5,7.0,32,bw,99.7798159459,2019_may_14_1059,017,256,20,5,iñaki,Experiment_EEG_version,20,
Nonliving_Things,../experiment_stimuli/bw_bc_bl/Nonliving_Things/Musical_Inst/drum_10.jpg,Musical_Inst,0,drum,0,57,57,25,259.002464128,nV_V,1,259.025283259,260.275139743,1,1,0.711798121745,261.007535543,3,0,0.270857748867,5,7.0,32,bw,99.7798159459,2019_may_14_1059,017,256,20,5,iñaki,Experiment_EEG_version,20,
Nonliving_Things,../experiment_stimuli/bw_bc_bl/Nonliving_Things/Furniture/wardrobe_24.jpg,Furniture,0,wardrobe,0,58,58,93,263.011201356,nV_V,1,263.018431497,264.253781289,1,1,0.621572263539,264.895919036,1,1,0.23072098149,5,7.0,32,bw,99.7798159459,2019_may_14_1059,017,256,20,5,iñaki,Experiment_EEG_version,20,
Nonliving_Things,../experiment_stimuli/bw_bc_bl/Nonliving_Things/Vehicles/van_21.jpg,Vehicles,0,van,0,59,59,91,266.859543516,nV_V,1,266.877983417,268.122205459,1,1,0.53139316017,268.674146107,3,0,0.230715797108,5,6.0,32,bw,99.7798159459,2019_may_14_1059,017,256,20,5,iñaki,Experiment_EEG_version,20,
Living_Things,../experiment_stimuli/bw_bc_bl/Living_Things/Birds/raven_21.jpg,Birds,0,raven,0,60,60,67,270.63778524,nV_V,2,270.65890949,271.890385508,0,1,0.721813064942,272.632760579,1,1,0.210679268464,5,6.0,32,bw,99.7798159459,2019_may_14_1059,017,256,20,5,iñaki,Experiment_EEG_version,20,
Nonliving_Things,../experiment_stimuli/bw_bc_bl/Nonliving_Things/Vehicles/boat_7.jpg,Vehicles,0,boat,0,61,61,7,274.576341774,V_nV,2,274.594378347,275.828951718,1,2,0.73181659804,276.581310293,1,1,0.220746808453,5,6.5,32,bw,99.7798159459,2019_may_14_1059,017,256,20,5,iñaki,Experiment_EEG_version,20,
Nonliving_Things,../experiment_stimuli/bw_bc_bl/Nonliving_Things/Musical_Inst/saxophone_1.jpg,Musical_Inst,0,saxophone,0,62,62,72,278.534930344,nV_V,1,278.548757428,279.797571652,0,2,0.75185655558,280.569998845,1,1,0.371031242656,5,6.0,32,bw,99.7798159459,2019_may_14_1059,017,256,20,5,iñaki,Experiment_EEG_version,20,
Nonliving_Things,../experiment_stimuli/bw_bc_bl/Nonliving_Things/Kitchen_Uten/cup_13.jpg,Kitchen_Uten,0,cup,0,63,63,22,282.673929563,V_nV,2,282.691413163,283.966636809,1,2,0.631585766794,284.61877785,1,1,0.230574791669,5,6.0,32,bw,99.7798159459,2019_may_14_1059,017,256,20,5,iñaki,Experiment_EEG_version,20,
Nonliving_Things,../experiment_stimuli/bw_bc_bl/Nonliving_Things/Vehicles/motorbike_21.jpg,Vehicles,0,motorbike,0,64,64,54,286.582422524,V_nV,2,286.602767639,287.895176178,1,2,0.631659269508,288.547432935,3,0,0.250786690507,5,6.5,32,bw,99.7798159459,2019_may_14_1059,017,256,20,5,iñaki,Experiment_EEG_version,20,
Nonliving_Things,../experiment_stimuli/bw_bc_bl/Nonliving_Things/Furniture/table_4.jpg,Furniture,0,table,0,65,65,81,290.531002208,V_nV,2,290.552870624,291.813694026,1,2,1.81416654825,293.658442177,3,0,0.200648622646,5,6.0,32,bw,99.7798159459,2019_may_14_1059,017,256,20,5,iñaki,Experiment_EEG_version,20,
Living_Things,../experiment_stimuli/bw_bc_bl/Living_Things/Marine_creatures/killer-whale_15.jpg,Marine_creatures,0,killer-whale,0,66,66,43,295.592017098,nV_V,2,295.617950246,296.854654072,0,1,0.83203197876,297.707249587,1,1,0.21069986216,5,6.5,32,bw,99.7798159459,2019_may_14_1059,017,256,20,5,iñaki,Experiment_EEG_version,20,
Nonliving_Things,../experiment_stimuli/bw_bc_bl/Nonliving_Things/Vehicles/plane_11.jpg,Vehicles,0,plane,0,67,67,64,299.650836601,nV_V,1,299.667481615,300.91347921,1,1,0.661686598847,301.595707323,1,1,0.200664814329,5,7.5,32,bw,99.7798159459,2019_may_14_1059,017,256,20,5,iñaki,Experiment_EEG_version,20,
Nonliving_Things,../experiment_stimuli/bw_bc_bl/Nonliving_Things/Furniture/rocking-chair_9.jpg,Furniture,0,rocking-chair,0,68,68,69,303.529257496,V_nV,2,303.546974698,304.811950352,1,2,0.551423422177,305.383916074,3,0,0.190630686993,5,6.0,32,bw,99.7798159459,2019_may_14_1059,017,256,20,5,iñaki,Experiment_EEG_version,20,
Living_Things,../experiment_stimuli/bw_bc_bl/Living_Things/Marine_creatures/sperm-whale_22.jpg,Marine_creatures,0,sperm-whale,0,69,69,80,307.307473593,V_nV,1,307.322341441,308.55007526,0,2,0.541399618727,309.112039347,1,1,0.180599962419,5,7.5,32,bw,99.7798159459,2019_may_14_1059,017,256,20,5,iñaki,Experiment_EEG_version,20,
Nonliving_Things,../experiment_stimuli/bw_bc_bl/Nonliving_Things/Buildings/factory_16.jpg,Buildings,0,factory,0,70,70,28,311.025559668,V_nV,2,311.045758014,312.278184774,0,1,0.611551813083,312.910281229,1,1,0.200651667721,5,6.0,32,bw,99.7798159459,2019_may_14_1059,017,256,20,5,iñaki,Experiment_EEG_version,20,
Nonliving_Things,../experiment_stimuli/bw_bc_bl/Nonliving_Things/Tools/axe_2.jpg,Tools,0,axe,0,71,71,3,314.843858097,V_nV,2,314.86516066,316.106503477,0,1,0.571466180554,316.698554309,1,1,0.250754296023,5,6.5,32,bw,99.7798159459,2019_may_14_1059,017,256,20,5,iñaki,Experiment_EEG_version,20,
Living_Things,../experiment_stimuli/bw_bc_bl/Living_Things/Insects/scorpion_23.jpg,Insects,0,scorpion,0,72,72,73,318.682207927,V_nV,1,318.701835928,319.954869633,1,1,0.731814504252,320.707227256,1,1,0.200648833183,5,6.5,32,bw,99.7798159459,2019_may_14_1059,017,256,20,5,iñaki,Experiment_EEG_version,20,
Living_Things,../experiment_stimuli/bw_bc_bl/Living_Things/Birds/goldfinch_15.jpg,Birds,0,goldfinch,0,73,73,33,322.640804211,V_nV,1,322.656536554,323.943537452,1,1,0.661664027721,324.625748637,1,1,0.220694290416,5,6.0,32,bw,99.7798159459,2019_may_14_1059,017,256,20,5,iñaki,Experiment_EEG_version,20,
Nonliving_Things,../experiment_stimuli/bw_bc_bl/Nonliving_Things/Buildings/cathedral_1.jpg,Buildings,0,cathedral,0,74,74,14,326.579364936,nV_V,1,326.597167539,327.892122591,0,2,0.671696711157,328.584400383,1,1,1.47342129686,5,6.0,32,bw,99.7798159459,2019_may_14_1059,017,256,20,5,iñaki,Experiment_EEG_version,20,
Living_Things,../experiment_stimuli/bw_bc_bl/Living_Things/Marine_creatures/whale_14.jpg,Marine_creatures,0,whale,0,75,75,94,331.790720719,V_nV,1,331.802651466,333.103462874,1,1,0.531550049083,333.65557614,1,1,0.190650344826,5,6.0,32,bw,99.7798159459,2019_may_14_1059,017,256,20,5,iñaki,Experiment_EEG_version,20,
Nonliving_Things,../experiment_stimuli/bw_bc_bl/Nonliving_Things/Buildings/church_14.jpg,Buildings,0,church,0,76,76,17,335.578925854,V_nV,2,335.594921971,336.921755502,1,2,1.23290536547,338.175197916,3,0,0.200647088874,5,6.5,32,bw,99.7798159459,2019_may_14_1059,017,256,20,5,iñaki,Experiment_EEG_version,20,
Living_Things,../experiment_stimuli/bw_bc_bl/Living_Things/Animals/lioness_18.jpg,Animals,0,lioness,0,77,77,48,340.108780265,V_nV,1,340.12976892,341.431558167,1,1,1.72398866329,343.176110588,1,1,0.170581831655,5,6.5,32,bw,99.7798159459,2019_may_14_1059,017,256,20,5,iñaki,Experiment_EEG_version,20,
Living_Things,../experiment_stimuli/bw_bc_bl/Living_Things/Insects/butterfly_23.jpg,Insects,0,butterfly,0,78,78,10,345.079583485,nV_V,2,345.101386282,346.422405724,1,2,0.902192056703,347.345146306,3,0,0.200662705174,5,6.5,32,bw,99.7798159459,2019_may_14_1059,017,256,20,5,iñaki,Experiment_EEG_version,20,
Nonliving_Things,../experiment_stimuli/bw_bc_bl/Nonliving_Things/Kitchen_Uten/coking-pot_11.jpg,Kitchen_Uten,0,coking-pot,0,79,79,18,349.278717712,V_nV,2,349.308293037,350.601500625,1,2,0.611551907205,351.23357996,3,0,0.17057962867,5,6.5,32,bw,99.7798159459,2019_may_14_1059,017,256,20,5,iñaki,Experiment_EEG_version,20,
Nonliving_Things,../experiment_stimuli/bw_bc_bl/Nonliving_Things/Musical_Inst/tuba_3.jpg,Musical_Inst,0,tuba,0,80,80,89,353.137103638,V_nV,2,353.162550139,354.439834534,1,2,0.741853683838,355.202250904,3,0,0.220686313114,5,6.0,32,bw,99.7798159459,2019_may_14_1059,017,256,20,5,iñaki,Experiment_EEG_version,20,
Nonliving_Things,../experiment_stimuli/bw_bc_bl/Nonliving_Things/Buildings/granary_5.jpg,Buildings,0,granary,0,81,81,35,357.15583393,V_nV,2,357.174871086,358.428500944,1,2,0.882143261086,359.331186261,2,0,0.200653028558,5,6.5,32,bw,99.7798159459,2019_may_14_1059,017,256,20,5,iñaki,Experiment_EEG_version,20,
Nonliving_Things,../experiment_stimuli/bw_bc_bl/Nonliving_Things/Musical_Inst/trumpet_17.jpg,Musical_Inst,0,trumpet,0,82,82,88,361.264765512,nV_V,1,361.282666715,362.527422181,1,1,1.09259803261,363.640576509,1,1,0.471242318803,5,6.5,32,bw,99.7798159459,2019_may_14_1059,017,256,20,5,iñaki,Experiment_EEG_version,20,
Living_Things,../experiment_stimuli/bw_bc_bl/Living_Things/Animals/hippopotamus_1.jpg,Animals,0,hippopotamus,0,83,83,39,365.844723541,nV_V,2,365.866416771,367.127414994,1,2,1.06254689192,368.210535249,2,0,0.210696681752,5,6.0,32,bw,99.7798159459,2019_may_14_1059,017,256,20,5,iñaki,Experiment_EEG_version,20,
Nonliving_Things,../experiment_stimuli/bw_bc_bl/Nonliving_Things/Vehicles/ship_17.jpg,Vehicles,0,ship,0,84,84,76,370.154089222,V_nV,2,370.164760994,371.416738865,1,2,0.922248107789,372.359543535,1,1,0.170629436034,5,6.5,32,bw,99.7798159459,2019_may_14_1059,017,256,20,5,iñaki,Experiment_EEG_version,20,
Nonliving_Things,../experiment_stimuli/bw_bc_bl/Nonliving_Things/Furniture/lamp_18.jpg,Furniture,0,lamp,0,85,85,46,374.263019797,V_nV,2,374.286840092,375.575779166,1,2,0.661498488742,376.257811368,3,0,0.160568455874,5,6.0,32,bw,99.7798159459,2019_may_14_1059,017,256,20,5,iñaki,Experiment_EEG_version,20,
Nonliving_Things,../experiment_stimuli/bw_bc_bl/Nonliving_Things/Kitchen_Uten/saucepan_19.jpg,Kitchen_Uten,0,saucepan,0,86,86,71,378.151496263,nV_V,1,378.168474591,379.434165137,1,1,0.691749126709,380.146478161,3,0,0.1806360521,5,6.0,32,bw,99.7798159459,2019_may_14_1059,017,256,20,5,iñaki,Experiment_EEG_version,20,
Living_Things,../experiment_stimuli/bw_bc_bl/Living_Things/Birds/goose_16.jpg,Birds,0,goose,0,87,87,34,382.059969449,V_nV,1,382.081235265,383.322619577,1,1,1.83422399429,385.177406885,2,0,0.431153573212,5,6.0,32,bw,99.7798159459,2019_may_14_1059,017,256,20,5,iñaki,Experiment_EEG_version,20,
Living_Things,../experiment_stimuli/bw_bc_bl/Living_Things/Birds/duck_0.jpg,Birds,0,duck,0,88,88,26,387.341460479,nV_V,2,387.357763821,388.594079709,1,2,0.761885129788,389.376512007,1,1,0.200651231629,5,7.0,32,bw,99.7798159459,2019_may_14_1059,017,256,20,5,iñaki,Experiment_EEG_version,20,
Nonliving_Things,../experiment_stimuli/bw_bc_bl/Nonliving_Things/Buildings/palace_12.jpg,Buildings,0,palace,0,89,89,58,391.310077669,nV_V,1,391.328000006,392.592772445,1,1,1.00240383594,393.615725521,1,1,0.290872837824,5,6.0,32,bw,99.7798159459,2019_may_14_1059,017,256,20,5,iñaki,Experiment_EEG_version,20,
Nonliving_Things,../experiment_stimuli/bw_bc_bl/Nonliving_Things/Furniture/bed_25.jpg,Furniture,0,bed,0,90,90,5,395.639492462,V_nV,2,395.656403852,396.952248127,1,2,1.20285863039,398.175701034,3,0,0.200674235297,5,6.0,32,bw,99.7798159459,2019_may_14_1059,017,256,20,5,iñaki,Experiment_EEG_version,20,
Living_Things,../experiment_stimuli/bw_bc_bl/Living_Things/Animals/cheetah_15.jpg,Animals,0,cheetah,0,91,91,16,400.109204272,V_nV,1,400.126534723,401.391900594,1,1,1.07256898901,402.485018736,1,1,0.260801471886,5,6.0,32,bw,99.7798159459,2019_may_14_1059,017,256,20,5,iñaki,Experiment_EEG_version,20,
Living_Things,../experiment_stimuli/bw_bc_bl/Living_Things/Birds/ostrich_13.jpg,Birds,0,ostrich,0,92,92,56,404.478710645,nV_V,2,404.497745764,405.771423335,1,2,1.50349047128,407.295450418,1,1,0.190627619333,5,7.5,32,bw,99.7798159459,2019_may_14_1059,017,256,20,5,iñaki,Experiment_EEG_version,20,
Living_Things,../experiment_stimuli/bw_bc_bl/Living_Things/Marine_creatures/shark_16.jpg,Marine_creatures,0,shark,0,93,93,75,409.219012351,nV_V,2,409.251430616,410.531767866,1,2,1.06255127495,411.614905305,1,1,0.180613221484,5,6.0,32,bw,99.7798159459,2019_may_14_1059,017,256,20,5,iñaki,Experiment_EEG_version,20,
Living_Things,../experiment_stimuli/bw_bc_bl/Living_Things/Animals/zebra_16.jpg,Animals,0,zebra,0,94,94,95,413.528379822,V_nV,1,413.543683912,414.861189765,1,1,1.20267777186,416.084402333,3,0,0.160564129066,5,6.0,32,bw,99.7798159459,2019_may_14_1059,017,256,20,5,iñaki,Experiment_EEG_version,20,
Nonliving_Things,../experiment_stimuli/bw_bc_bl/Nonliving_Things/Vehicles/train_21.jpg,Vehicles,0,train,0,95,95,87,417.978079066,V_nV,2,418.000381296,419.280790492,1,2,0.621570677147,419.922917751,1,1,0.180612766708,5,6.0,32,bw,99.7798159459,2019_may_14_1059,017,256,20,5,iñaki,Experiment_EEG_version,20,
