category,probe_path,subcategory,fixation_duration,label,trials.thisRepN,trials.thisTrialN,trials.thisN,trials.thisIndex,image_onset_time,response_window,correctAns,probe_onset,discrim_resptime,response.corr,response.keys,response.rt,visible_resptime,visible.keys,visible.corr,visible.rt,probeFrames,jitter2,n_square,experiment_color,frameRate,date,session,image_size,premask_dur,probeFrames,participant,expName,postmask_dur,
Living_Things,../experiment_stimuli/bw_bc_bl/Living_Things/Animals/horse_14.jpg,Animals,0,horse,0,0,0,40,3.77331552037,nV_V,2,3.80863776638,5.07605014536,1,2,1.78411159561,6.89098579541,3,0,0.962311263354,5,6.0,32,bw,99.7824174274,2019_may_09_1616,001,256,20,5,Iñaki,Experiment_EEG_version,20,
Nonliving_Things,../experiment_stimuli/bw_bc_bl/Nonliving_Things/Vehicles/motorbike_24.jpg,Vehicles,0,motorbike,0,1,1,54,9.58594307565,nV_V,1,9.61446044167,10.84860403,1,1,1.55360128391,12.4227566061,1,1,1.71394651384,5,6.0,32,bw,99.7824174274,2019_may_09_1616,001,256,20,5,Iñaki,Experiment_EEG_version,20,
Living_Things,../experiment_stimuli/bw_bc_bl/Living_Things/Marine_creatures/pomfret_1.jpg,Marine_creatures,0,pomfret,0,2,2,65,15.8696019524,nV_V,2,15.8944732918,17.1623134953,0,1,1.37321247279,18.5560939364,1,1,0.952306775056,5,7.5,32,bw,99.7824174274,2019_may_09_1616,001,256,20,5,Iñaki,Experiment_EEG_version,20,
Nonliving_Things,../experiment_stimuli/bw_bc_bl/Nonliving_Things/Kitchen_Uten/pot_17.jpg,Kitchen_Uten,0,pot,0,3,3,66,21.2412848112,V_nV,2,21.2718347571,22.5640544385,1,2,1.74401837997,24.3286179718,3,0,1.35316006036,5,6.0,32,bw,99.7824174274,2019_may_09_1616,001,256,20,5,Iñaki,Experiment_EEG_version,20,
Living_Things,../experiment_stimuli/bw_bc_bl/Living_Things/Birds/pelican_6.jpg,Birds,0,pelican,0,4,4,60,27.4146944362,nV_V,2,27.4326001611,28.6973815663,1,2,1.49349543043,30.2114398752,1,1,1.15272469424,5,6.0,32,bw,99.7824174274,2019_may_09_1616,001,256,20,5,Iñaki,Experiment_EEG_version,20,
Living_Things,../experiment_stimuli/bw_bc_bl/Living_Things/Animals/cow_24.jpg,Animals,0,cow,0,5,5,20,33.0970467895,nV_V,2,33.1149481307,34.3997771736,1,2,1.01242359078,35.4327391169,3,0,0.952288685088,5,6.0,32,bw,99.7824174274,2019_may_09_1616,001,256,20,5,Iñaki,Experiment_EEG_version,20,
Living_Things,../experiment_stimuli/bw_bc_bl/Living_Things/Marine_creatures/dolphin_0.jpg,Marine_creatures,0,dolphin,0,6,6,23,38.1179577507,V_nV,1,38.1332449378,39.4006486964,0,2,1.90436207251,41.3255648655,3,0,0.952139724815,5,6.5,32,bw,99.7824174274,2019_may_09_1616,001,256,20,5,Iñaki,Experiment_EEG_version,20,
Nonliving_Things,../experiment_stimuli/bw_bc_bl/Nonliving_Things/Buildings/house_13.jpg,Buildings,0,house,0,7,7,41,44.0107678043,V_nV,2,44.0364972363,45.273409413,0,1,0.721793937071,46.0157882698,1,1,0.882137415503,5,8.0,32,bw,99.7824174274,2019_may_09_1616,001,256,20,5,Iñaki,Experiment_EEG_version,20,
Nonliving_Things,../experiment_stimuli/bw_bc_bl/Nonliving_Things/Musical_Inst/drum_2.jpg,Musical_Inst,0,drum,0,8,8,25,48.6308089916,nV_V,1,48.659332944,49.9034757952,0,2,1.38323207723,51.3072747694,1,1,1.73399050139,5,7.0,32,bw,99.7824174274,2019_may_09_1616,001,256,20,5,Iñaki,Experiment_EEG_version,20,
Nonliving_Things,../experiment_stimuli/bw_bc_bl/Nonliving_Things/Buildings/cathedral_8.jpg,Buildings,0,cathedral,0,9,9,14,54.7741610958,V_nV,2,54.8011157137,56.0668724207,1,2,1.75404884176,57.8414834152,2,0,1.26297111893,5,7.0,32,bw,99.7824174274,2019_may_09_1616,001,256,20,5,Iñaki,Experiment_EEG_version,20,
Nonliving_Things,../experiment_stimuli/bw_bc_bl/Nonliving_Things/Musical_Inst/tuba_24.jpg,Musical_Inst,0,tuba,0,10,10,89,60.8373406493,nV_V,1,60.8689219825,62.1200288392,1,1,2.90638901161,65.0469713946,2,0,1.94444953205,5,6.0,32,bw,99.7824174274,2019_may_09_1616,001,256,20,5,Iñaki,Experiment_EEG_version,20,
Living_Things,../experiment_stimuli/bw_bc_bl/Living_Things/Birds/raven_0.jpg,Birds,0,raven,0,11,11,67,68.7244805842,V_nV,1,68.7399237805,69.9871327493,1,1,2.15490870986,72.16258662,2,0,0.972337815068,5,7.5,32,bw,99.7824174274,2019_may_09_1616,001,256,20,5,Iñaki,Experiment_EEG_version,20,
Nonliving_Things,../experiment_stimuli/bw_bc_bl/Nonliving_Things/Musical_Inst/piano__23.jpg,Musical_Inst,0,piano,0,12,12,62,74.8678310121,nV_V,1,74.9020846153,76.1405174355,1,1,1.10262601717,77.2636775044,1,1,0.731666130454,5,7.5,32,bw,99.7824174274,2019_may_09_1616,001,256,20,5,Iñaki,Experiment_EEG_version,20,
Living_Things,../experiment_stimuli/bw_bc_bl/Living_Things/Insects/scorpion_8.jpg,Insects,0,scorpion,0,13,13,73,79.7283996645,nV_V,2,79.7470022402,81.0111046627,1,2,1.58366931945,82.6152997333,1,1,1.2729838026,5,6.0,32,bw,99.7824174274,2019_may_09_1616,001,256,20,5,Iñaki,Experiment_EEG_version,20,
Living_Things,../experiment_stimuli/bw_bc_bl/Living_Things/Animals/lioness_23.jpg,Animals,0,lioness,0,14,14,48,85.6212103457,V_nV,1,85.6352775352,86.913919757,1,1,1.45339621165,88.3878876625,2,0,2.25512471071,5,6.5,32,bw,99.7824174274,2019_may_09_1616,001,256,20,5,Iñaki,Experiment_EEG_version,20,
Living_Things,../experiment_stimuli/bw_bc_bl/Living_Things/Birds/goose_25.jpg,Birds,0,goose,0,15,15,34,92.3758916761,nV_V,2,92.3922232954,93.6585828961,1,2,1.49347727673,95.1726431072,2,0,1.13268697727,5,7.5,32,bw,99.7824174274,2019_may_09_1616,001,256,20,5,Iñaki,Experiment_EEG_version,20,
Nonliving_Things,../experiment_stimuli/bw_bc_bl/Nonliving_Things/Buildings/factory_24.jpg,Buildings,0,factory,0,16,16,28,98.0382010043,nV_V,1,98.0687052552,99.3208889461,1,1,0.892005695228,100.23345517,1,1,0.601525076976,5,6.0,32,bw,99.7824174274,2019_may_09_1616,001,256,20,5,Iñaki,Experiment_EEG_version,20,
Nonliving_Things,../experiment_stimuli/bw_bc_bl/Nonliving_Things/Furniture/armchair_26.jpg,Furniture,0,armchair,0,17,17,2,102.568042724,nV_V,1,102.58940508,103.850738392,1,1,0.962319233166,104.83361498,3,0,0.721807602469,5,7.5,32,bw,99.7824174274,2019_may_09_1616,001,256,20,5,Iñaki,Experiment_EEG_version,20,
Living_Things,../experiment_stimuli/bw_bc_bl/Living_Things/Insects/ladybird_23.jpg,Insects,0,ladybird,0,18,18,45,107.288304532,nV_V,2,107.303044325,108.540930457,1,2,1.94445391545,110.505931038,1,1,0.611547640206,5,6.0,32,bw,99.7824174274,2019_may_09_1616,001,256,20,5,Iñaki,Experiment_EEG_version,20,
Living_Things,../experiment_stimuli/bw_bc_bl/Living_Things/Animals/armadillo_16.jpg,Animals,0,armadillo,0,19,19,1,112.850396649,nV_V,2,112.872529859,114.123064682,1,2,1.32310163012,115.466712601,1,1,1.22287789255,5,7.5,32,bw,99.7824174274,2019_may_09_1616,001,256,20,5,Iñaki,Experiment_EEG_version,20,
Living_Things,../experiment_stimuli/bw_bc_bl/Living_Things/Animals/tapir_3.jpg,Animals,0,tapir,0,20,20,82,118.422517404,nV_V,2,118.45404516,119.735265363,1,2,1.2228841481,120.97871289,2,0,1.20285272463,5,6.5,32,bw,99.7824174274,2019_may_09_1616,001,256,20,5,Iñaki,Experiment_EEG_version,20,
Living_Things,../experiment_stimuli/bw_bc_bl/Living_Things/Birds/barn-owl_11.jpg,Birds,0,barn-owl,0,21,21,4,123.914452646,nV_V,2,123.928886928,125.207160306,1,2,2.2050185862,127.432762135,1,1,1.51350746713,5,7.5,32,bw,99.7824174274,2019_may_09_1616,001,256,20,5,Iñaki,Experiment_EEG_version,20,
Living_Things,../experiment_stimuli/bw_bc_bl/Living_Things/Marine_creatures/manatee_4.jpg,Marine_creatures,0,manatee,0,22,22,52,130.67915286,nV_V,2,130.69886369,131.98188703,1,2,1.13270954122,133.135145551,3,0,1.3832323966,5,6.0,32,bw,99.7824174274,2019_may_09_1616,001,256,20,5,Iñaki,Experiment_EEG_version,20,
Nonliving_Things,../experiment_stimuli/bw_bc_bl/Nonliving_Things/Furniture/bedside-table_24.jpg,Furniture,0,bedside-table,0,23,23,6,136.251278257,nV_V,1,136.271830576,137.53395641,1,1,3.31743817346,140.871961688,1,1,0.942267794946,5,7.5,32,bw,99.7824174274,2019_may_09_1616,001,256,20,5,Iñaki,Experiment_EEG_version,20,
Nonliving_Things,../experiment_stimuli/bw_bc_bl/Nonliving_Things/Kitchen_Uten/small-saucepan_22.jpg,Kitchen_Uten,0,small-saucepan,0,24,24,77,143.547135518,V_nV,2,143.581993857,144.869899525,1,2,1.21285884806,146.103325921,2,0,1.07255964684,5,6.0,32,bw,99.7824174274,2019_may_09_1616,001,256,20,5,Iñaki,Experiment_EEG_version,20,
Nonliving_Things,../experiment_stimuli/bw_bc_bl/Nonliving_Things/Musical_Inst/guitar_25.jpg,Musical_Inst,0,guitar,0,25,25,36,148.908780551,V_nV,2,148.927294951,150.201493815,1,2,2.38525657993,152.607303717,3,0,0.71176255084,5,6.5,32,bw,99.7824174274,2019_may_09_1616,001,256,20,5,Iñaki,Experiment_EEG_version,20,
Living_Things,../experiment_stimuli/bw_bc_bl/Living_Things/Insects/dragonfly_16.jpg,Insects,0,dragonfly,0,26,26,24,155.052136801,nV_V,2,155.07734064,156.33482271,0,1,2.0146145125,158.380020901,2,0,1.43333491608,5,6.0,32,bw,99.7824174274,2019_may_09_1616,001,256,20,5,Iñaki,Experiment_EEG_version,20,
Nonliving_Things,../experiment_stimuli/bw_bc_bl/Nonliving_Things/Buildings/mill_14.jpg,Buildings,0,mill,0,27,27,53,161.546250059,V_nV,2,161.564472039,162.808895931,1,2,1.41330204508,164.242761151,1,1,0.962313105434,5,6.5,32,bw,99.7824174274,2019_may_09_1616,001,256,20,5,Iñaki,Experiment_EEG_version,20,
Living_Things,../experiment_stimuli/bw_bc_bl/Living_Things/Birds/rooster_14.jpg,Birds,0,rooster,0,28,28,70,166.937970567,V_nV,1,166.946386409,168.220659945,1,1,1.68392965801,169.925150906,3,0,0.731802824163,5,6.5,32,bw,99.7824174274,2019_may_09_1616,001,256,20,5,Iñaki,Experiment_EEG_version,20,
Living_Things,../experiment_stimuli/bw_bc_bl/Living_Things/Birds/owl_15.jpg,Birds,0,owl,0,29,29,57,172.389850965,V_nV,1,172.408517762,173.662489055,0,2,1.90436598223,175.58741172,1,1,0.822007118408,5,6.0,32,bw,99.7824174274,2019_may_09_1616,001,256,20,5,Iñaki,Experiment_EEG_version,20,
Nonliving_Things,../experiment_stimuli/bw_bc_bl/Nonliving_Things/Tools/axe_4.jpg,Tools,0,axe,0,30,30,3,178.142337551,V_nV,2,178.172135658,179.455085502,1,2,1.90436859121,181.379987378,3,0,0.811984149528,5,6.5,32,bw,99.7824174274,2019_may_09_1616,001,256,20,5,Iñaki,Experiment_EEG_version,20,
Living_Things,../experiment_stimuli/bw_bc_bl/Living_Things/Animals/tiger_6.jpg,Animals,0,tiger,0,31,31,84,183.924895957,V_nV,1,183.944257071,185.207583839,1,1,1.15272913779,186.380876014,3,0,1.39308795864,5,6.5,32,bw,99.7824174274,2019_may_09_1616,001,256,20,5,Iñaki,Experiment_EEG_version,20,
Nonliving_Things,../experiment_stimuli/bw_bc_bl/Nonliving_Things/Furniture/wardrobe_22.jpg,Furniture,0,wardrobe,0,32,32,93,189.507036107,V_nV,2,189.522327053,190.769677306,1,2,1.18282336844,191.973055391,1,1,0.701749938777,5,6.0,32,bw,99.7824174274,2019_may_09_1616,001,256,20,5,Iñaki,Experiment_EEG_version,20,
Living_Things,../experiment_stimuli/bw_bc_bl/Living_Things/Insects/butterfly_26.jpg,Insects,0,butterfly,0,33,33,10,194.407685084,nV_V,2,194.434680111,195.700395638,0,1,2.20502084539,197.92597543,1,1,0.441174516298,5,6.0,32,bw,99.7824174274,2019_may_09_1616,001,256,20,5,Iñaki,Experiment_EEG_version,20,
Living_Things,../experiment_stimuli/bw_bc_bl/Living_Things/Marine_creatures/crab_8.jpg,Marine_creatures,0,crab,0,34,34,21,200.10005606,V_nV,1,200.121381488,201.402789095,1,1,2.70610945135,204.129461334,3,0,0.761874491236,5,6.0,32,bw,99.7824174274,2019_may_09_1616,001,256,20,5,Iñaki,Experiment_EEG_version,20,
Living_Things,../experiment_stimuli/bw_bc_bl/Living_Things/Marine_creatures/sperm-whale_4.jpg,Marine_creatures,0,sperm-whale,0,35,35,80,206.624265755,nV_V,2,206.638658669,207.896907349,1,2,1.24293964283,209.160414926,3,0,0.67169716975,5,6.0,32,bw,99.7824174274,2019_may_09_1616,001,256,20,5,Iñaki,Experiment_EEG_version,20,
Nonliving_Things,../experiment_stimuli/bw_bc_bl/Nonliving_Things/Kitchen_Uten/frying-pan_14.jpg,Kitchen_Uten,0,frying-pan,0,36,36,31,211.564979189,nV_V,1,211.575322134,212.797561803,0,2,1.84423664036,214.662350405,1,1,0.561446812791,5,6.0,32,bw,99.7824174274,2019_may_09_1616,001,256,20,5,Iñaki,Experiment_EEG_version,20,
Living_Things,../experiment_stimuli/bw_bc_bl/Living_Things/Animals/lynx_0.jpg,Animals,0,lynx,0,37,37,50,216.956701411,V_nV,1,216.978123675,218.209324483,1,1,2.2150447584,220.444929146,1,1,0.711798069129,5,6.5,32,bw,99.7824174274,2019_may_09_1616,001,256,20,5,Iñaki,Experiment_EEG_version,20,
Living_Things,../experiment_stimuli/bw_bc_bl/Living_Things/Birds/toucan_15.jpg,Birds,0,toucan,0,38,38,85,222.889598285,nV_V,2,222.909750586,224.162262694,1,2,1.59371170195,225.776528909,2,0,0.41113436757,5,8.0,32,bw,99.7824174274,2019_may_09_1616,001,256,20,5,Iñaki,Experiment_EEG_version,20,
Nonliving_Things,../experiment_stimuli/bw_bc_bl/Nonliving_Things/Furniture/Chest-of-drawers_1.jpg,Furniture,0,Chest-of-drawers,0,39,39,0,227.920535065,nV_V,1,227.955216674,229.203226402,1,1,1.47344792413,230.697230392,1,1,0.731656032853,5,7.0,32,bw,99.7824174274,2019_may_09_1616,001,256,20,5,Iñaki,Experiment_EEG_version,20,
Living_Things,../experiment_stimuli/bw_bc_bl/Living_Things/Birds/pigeon_23.jpg,Birds,0,pigeon,0,40,40,63,233.161926068,V_nV,1,233.176635162,234.434595398,0,2,2.53573523723,236.990941783,2,0,0.461249014694,5,6.0,32,bw,99.7824174274,2019_may_09_1616,001,256,20,5,Iñaki,Experiment_EEG_version,20,
Nonliving_Things,../experiment_stimuli/bw_bc_bl/Nonliving_Things/Furniture/table_13.jpg,Furniture,0,table,0,41,41,81,239.185023522,nV_V,1,239.198552483,240.447669398,1,1,1.89434085513,242.362553872,1,1,1.14272300289,5,6.5,32,bw,99.7824174274,2019_may_09_1616,001,256,20,5,Iñaki,Experiment_EEG_version,20,
Nonliving_Things,../experiment_stimuli/bw_bc_bl/Nonliving_Things/Musical_Inst/violin_1.jpg,Musical_Inst,0,violin,0,42,42,92,245.238181196,V_nV,2,245.262773934,246.52086606,1,2,2.43554266069,248.976982982,1,1,1.94444944577,5,6.5,32,bw,99.7824174274,2019_may_09_1616,001,256,20,5,Iñaki,Experiment_EEG_version,20,
Living_Things,../experiment_stimuli/bw_bc_bl/Living_Things/Animals/giraffe_23.jpg,Animals,0,giraffe,0,43,43,32,252.654304253,nV_V,2,252.675108876,253.957030638,1,2,1.95450690681,255.932102949,2,0,0.791943579041,5,6.0,32,bw,99.7824174274,2019_may_09_1616,001,256,20,5,Iñaki,Experiment_EEG_version,20,
Nonliving_Things,../experiment_stimuli/bw_bc_bl/Nonliving_Things/Vehicles/tractor_0.jpg,Vehicles,0,tractor,0,44,44,86,258.456909309,nV_V,1,258.48226269,259.75964569,1,1,1.94445124667,261.724683649,3,0,0.902183895325,5,8.0,32,bw,99.7824174274,2019_may_09_1616,001,256,20,5,Iñaki,Experiment_EEG_version,20,
Nonliving_Things,../experiment_stimuli/bw_bc_bl/Nonliving_Things/Vehicles/train_17.jpg,Vehicles,0,train,0,45,45,87,264.359745392,nV_V,1,264.387081271,265.632412568,1,1,0.912228642268,266.565195363,1,1,0.872112145547,5,6.5,32,bw,99.7824174274,2019_may_09_1616,001,256,20,5,Iñaki,Experiment_EEG_version,20,
Nonliving_Things,../experiment_stimuli/bw_bc_bl/Nonliving_Things/Vehicles/boat_14.jpg,Vehicles,0,boat,0,46,46,7,269.170201427,nV_V,1,269.197961056,270.452889166,1,1,2.48562671032,272.959075334,1,1,1.21285479191,5,7.5,32,bw,99.7824174274,2019_may_09_1616,001,256,20,5,Iñaki,Experiment_EEG_version,20,
Nonliving_Things,../experiment_stimuli/bw_bc_bl/Nonliving_Things/Furniture/lamp_15.jpg,Furniture,0,lamp,0,47,47,46,275.904845334,nV_V,1,275.930846135,277.197552768,1,1,0.751860833716,277.969954529,3,0,0.451200316144,5,6.5,32,bw,99.7824174274,2019_may_09_1616,001,256,20,5,Iñaki,Experiment_EEG_version,20,
Nonliving_Things,../experiment_stimuli/bw_bc_bl/Nonliving_Things/Furniture/sofa_6.jpg,Furniture,0,sofa,0,48,48,78,280.154088922,V_nV,2,280.167792655,281.416720625,1,2,2.6960863543,284.133375749,1,1,0.912205450692,5,6.0,32,bw,99.7824174274,2019_may_09_1616,001,256,20,5,Iñaki,Experiment_EEG_version,20,
Nonliving_Things,../experiment_stimuli/bw_bc_bl/Nonliving_Things/Buildings/granary_23.jpg,Buildings,0,granary,0,49,49,35,286.778479897,V_nV,2,286.804441578,288.081209995,1,2,1.38323312233,289.484999289,3,0,0.641612638201,5,6.0,32,bw,99.7824174274,2019_may_09_1616,001,256,20,5,Iñaki,Experiment_EEG_version,20,
Living_Things,../experiment_stimuli/bw_bc_bl/Living_Things/Marine_creatures/lobster_18.jpg,Marine_creatures,0,lobster,0,50,50,49,291.859519959,V_nV,1,291.873341874,293.132200605,0,2,2.17480013928,295.33758828,2,0,1.41329622168,5,6.0,32,bw,99.7824174274,2019_may_09_1616,001,256,20,5,Iñaki,Experiment_EEG_version,20,
Living_Things,../experiment_stimuli/bw_bc_bl/Living_Things/Animals/turtle_20.jpg,Animals,0,turtle,0,51,51,90,298.483921419,V_nV,1,298.504376318,299.746566839,1,1,1.19281437967,300.959932492,2,0,1.16275133618,5,6.0,32,bw,99.7824174274,2019_may_09_1616,001,256,20,5,Iñaki,Experiment_EEG_version,20,
Nonliving_Things,../experiment_stimuli/bw_bc_bl/Nonliving_Things/Furniture/filling-cabinet_12.jpg,Furniture,0,filling-cabinet,0,52,52,29,303.855624037,V_nV,2,303.873714161,305.108250293,0,1,1.95447130976,307.083248233,1,1,0.511331496506,5,6.5,32,bw,99.7824174274,2019_may_09_1616,001,256,20,5,Iñaki,Experiment_EEG_version,20,
Nonliving_Things,../experiment_stimuli/bw_bc_bl/Nonliving_Things/Furniture/chair_12.jpg,Furniture,0,chair,0,53,53,15,309.327501261,nV_V,1,309.357604304,310.600170794,1,1,0.982205824477,311.602924685,1,1,0.681705537694,5,7.0,32,bw,99.7824174274,2019_may_09_1616,001,256,20,5,Iñaki,Experiment_EEG_version,20,
Nonliving_Things,../experiment_stimuli/bw_bc_bl/Nonliving_Things/Musical_Inst/trumpet_22.jpg,Musical_Inst,0,trumpet,0,54,54,88,314.017701267,V_nV,2,314.043425011,315.300378115,1,2,2.33530483666,317.656235019,1,1,1.62375465908,5,6.5,32,bw,99.7824174274,2019_may_09_1616,001,256,20,5,Iñaki,Experiment_EEG_version,20,
Living_Things,../experiment_stimuli/bw_bc_bl/Living_Things/Birds/hummingbird_9.jpg,Birds,0,hummingbird,0,55,55,42,321.012906773,nV_V,2,321.03152948,322.295582772,0,1,3.18715515961,325.503303276,1,1,0.962308466402,5,6.0,32,bw,99.7824174274,2019_may_09_1616,001,256,20,5,Iñaki,Experiment_EEG_version,20,
Nonliving_Things,../experiment_stimuli/bw_bc_bl/Nonliving_Things/Kitchen_Uten/teapot_24.jpg,Kitchen_Uten,0,teapot,0,56,56,83,328.198521815,V_nV,2,328.223328351,329.521294289,1,2,3.45774684072,332.999583937,1,1,1.01242394022,5,7.5,32,bw,99.7824174274,2019_may_09_1616,001,256,20,5,Iñaki,Experiment_EEG_version,20,
Nonliving_Things,../experiment_stimuli/bw_bc_bl/Nonliving_Things/Buildings/castle_24.jpg,Buildings,0,castle,0,57,57,12,335.744927021,V_nV,2,335.761466081,337.087740929,1,2,0.992404993842,338.1007212,3,0,1.01242506838,5,6.5,32,bw,99.7824174274,2019_may_09_1616,001,256,20,5,Iñaki,Experiment_EEG_version,20,
Living_Things,../experiment_stimuli/bw_bc_bl/Living_Things/Birds/duck_5.jpg,Birds,0,duck,0,58,58,26,340.846007906,V_nV,1,340.862771542,342.168785191,1,1,1.09260408551,343.281939884,3,0,0.361004025362,5,6.0,32,bw,99.7824174274,2019_may_09_1616,001,256,20,5,Iñaki,Experiment_EEG_version,20,
Living_Things,../experiment_stimuli/bw_bc_bl/Living_Things/Animals/cheetah_23.jpg,Animals,0,cheetah,0,59,59,16,345.375854573,V_nV,1,345.393447351,346.678585438,1,1,0.932250502319,347.631414687,3,0,0.481282791512,5,6.0,32,bw,99.7824174274,2019_may_09_1616,001,256,20,5,Iñaki,Experiment_EEG_version,20,
Nonliving_Things,../experiment_stimuli/bw_bc_bl/Nonliving_Things/Kitchen_Uten/coking-pot_18.jpg,Kitchen_Uten,0,coking-pot,0,60,60,18,349.84556971,V_nV,2,349.863491454,351.138284268,0,1,0.942302441068,352.101150798,2,0,0.691721751209,5,6.0,32,bw,99.7824174274,2019_may_09_1616,001,256,20,5,Iñaki,Experiment_EEG_version,20,
Living_Things,../experiment_stimuli/bw_bc_bl/Living_Things/Animals/elephant_0.jpg,Animals,0,elephant,0,61,61,27,354.525748536,V_nV,1,354.530701484,355.788402927,0,2,1.44336414087,357.252319033,1,1,0.391065181308,5,6.0,32,bw,99.7824174274,2019_may_09_1616,001,256,20,5,Iñaki,Experiment_EEG_version,20,
Living_Things,../experiment_stimuli/bw_bc_bl/Living_Things/Birds/seagull_0.jpg,Birds,0,seagull,0,62,62,74,359.376289051,nV_V,2,359.396519366,360.668999774,1,2,2.98672171075,363.67630731,1,1,1.27299944183,5,6.0,32,bw,99.7824174274,2019_may_09_1616,001,256,20,5,Iñaki,Experiment_EEG_version,20,
Nonliving_Things,../experiment_stimuli/bw_bc_bl/Nonliving_Things/Furniture/lectern_8.jpg,Furniture,0,lectern,0,63,63,47,366.682168209,nV_V,1,366.703752682,367.994924682,1,1,2.06470552445,370.080210341,3,0,0.651636032424,5,7.5,32,bw,99.7824174274,2019_may_09_1616,001,256,20,5,Iñaki,Experiment_EEG_version,20,
Living_Things,../experiment_stimuli/bw_bc_bl/Living_Things/Marine_creatures/shark_9.jpg,Marine_creatures,0,shark,0,64,64,75,372.464755916,V_nV,1,372.479820099,373.737423377,0,2,8.30830798234,382.066278577,1,1,2.46558181337,5,6.0,32,bw,99.7824174274,2019_may_09_1616,001,256,20,5,Iñaki,Experiment_EEG_version,20,
Nonliving_Things,../experiment_stimuli/bw_bc_bl/Nonliving_Things/Vehicles/van_4.jpg,Vehicles,0,van,0,65,65,91,386.264740512,V_nV,2,386.294209425,387.557449111,1,2,1.43335980294,389.021408657,1,1,1.58366580428,5,6.5,32,bw,99.7824174274,2019_may_09_1616,001,256,20,5,Iñaki,Experiment_EEG_version,20,
Living_Things,../experiment_stimuli/bw_bc_bl/Living_Things/Birds/penguin_14.jpg,Birds,0,penguin,0,66,66,61,392.337964632,V_nV,1,392.352489857,393.650707072,1,1,1.47342234196,395.144679695,2,0,0.52135725124,5,7.0,32,bw,99.7824174274,2019_may_09_1616,001,256,20,5,Iñaki,Experiment_EEG_version,20,
Living_Things,../experiment_stimuli/bw_bc_bl/Living_Things/Birds/partridge_10.jpg,Birds,0,partridge,0,67,67,59,397.398946012,V_nV,1,397.413212157,398.71169773,1,1,1.49332182747,400.225570087,2,0,1.19281946982,5,6.5,32,bw,99.7824174274,2019_may_09_1616,001,256,20,5,Iñaki,Experiment_EEG_version,20,
Living_Things,../experiment_stimuli/bw_bc_bl/Living_Things/Marine_creatures/narwhal_6.jpg,Marine_creatures,0,narwhal,0,68,68,55,403.151449045,V_nV,1,403.185149051,404.474236213,1,1,1.39325310307,405.888038511,3,0,0.661505120226,5,6.0,32,bw,99.7824174274,2019_may_09_1616,001,256,20,5,Iñaki,Experiment_EEG_version,20,
Living_Things,../experiment_stimuli/bw_bc_bl/Living_Things/Animals/cat_26.jpg,Animals,0,cat,0,69,69,13,408.282595976,V_nV,1,408.308714219,409.555269389,0,2,2.0947814317,411.670611932,2,0,1.07255939872,5,6.0,32,bw,99.7824174274,2019_may_09_1616,001,256,20,5,Iñaki,Experiment_EEG_version,20,
Nonliving_Things,../experiment_stimuli/bw_bc_bl/Nonliving_Things/Furniture/rocking-chair_7.jpg,Furniture,0,rocking-chair,0,70,70,69,414.476059457,nV_V,1,414.503837668,415.738722547,1,1,2.13487170359,417.894128997,1,1,1.09244142977,5,6.5,32,bw,99.7824174274,2019_may_09_1616,001,256,20,5,Iñaki,Experiment_EEG_version,20,
Nonliving_Things,../experiment_stimuli/bw_bc_bl/Nonliving_Things/Vehicles/plane_24.jpg,Vehicles,0,plane,0,71,71,64,420.719639366,V_nV,2,420.733733826,422.012347143,1,2,1.42331697326,423.456218434,1,1,0.391076688484,5,7.0,32,bw,99.7824174274,2019_may_09_1616,001,256,20,5,Iñaki,Experiment_EEG_version,20,
Nonliving_Things,../experiment_stimuli/bw_bc_bl/Nonliving_Things/Furniture/bed_1.jpg,Furniture,0,bed,0,72,72,5,425.580231925,V_nV,2,425.597593638,426.892970391,1,2,0.882167610203,427.795689286,3,0,0.431196678172,5,6.0,32,bw,99.7824174274,2019_may_09_1616,001,256,20,5,Iñaki,Experiment_EEG_version,20,
Nonliving_Things,../experiment_stimuli/bw_bc_bl/Nonliving_Things/Vehicles/car_11.jpg,Vehicles,0,car,0,73,73,11,429.959754072,V_nV,2,429.98441291,431.242411608,1,2,0.892187165955,432.155178592,3,0,0.541395035876,5,6.0,32,bw,99.7824174274,2019_may_09_1616,001,256,20,5,Iñaki,Experiment_EEG_version,20,
Living_Things,../experiment_stimuli/bw_bc_bl/Living_Things/Animals/rhino_14.jpg,Animals,0,rhino,0,74,74,68,434.429441649,nV_V,2,434.45996408,435.692086942,0,1,0.441196343052,436.153835119,1,1,0.611548873272,5,6.0,32,bw,99.7824174274,2019_may_09_1616,001,256,20,5,Iñaki,Experiment_EEG_version,20,
Living_Things,../experiment_stimuli/bw_bc_bl/Living_Things/Birds/sparrow_26.jpg,Birds,0,sparrow,0,75,75,79,438.498288501,nV_V,2,438.518857334,439.770950636,1,2,2.19500257175,441.986526116,3,0,1.24292656783,5,6.0,32,bw,99.7824174274,2019_may_09_1616,001,256,20,5,Iñaki,Experiment_EEG_version,20,
Living_Things,../experiment_stimuli/bw_bc_bl/Living_Things/Animals/hippopotamus_2.jpg,Animals,0,hippopotamus,0,76,76,39,444.962335344,V_nV,1,444.97911949,446.214959269,1,1,1.3130899203,447.548597004,1,1,2.94664139719,5,6.5,32,bw,99.7824174274,2019_may_09_1616,001,256,20,5,Iñaki,Experiment_EEG_version,20,
Nonliving_Things,../experiment_stimuli/bw_bc_bl/Nonliving_Things/Kitchen_Uten/fondue_18.jpg,Kitchen_Uten,0,fondue,0,77,77,30,452.22813388,V_nV,2,452.255561288,453.510823578,1,2,1.5435814539,455.074953403,3,0,0.902206236931,5,6.0,32,bw,99.7824174274,2019_may_09_1616,001,256,20,5,Iñaki,Experiment_EEG_version,20,
Nonliving_Things,../experiment_stimuli/bw_bc_bl/Nonliving_Things/Furniture/bookcase_11.jpg,Furniture,0,bookcase,0,78,78,8,457.710049333,V_nV,2,457.726782511,458.962682442,1,2,6.5444598749,465.527689974,1,1,1.57365465836,5,6.5,32,bw,99.7824174274,2019_may_09_1616,001,256,20,5,Iñaki,Experiment_EEG_version,20,
Living_Things,../experiment_stimuli/bw_bc_bl/Living_Things/Marine_creatures/killer-whale_25.jpg,Marine_creatures,0,killer-whale,0,79,79,43,468.844243965,V_nV,1,468.857189005,470.106895581,0,2,0.621577387721,470.749024313,1,1,1.45338309512,5,6.0,32,bw,99.7824174274,2019_may_09_1616,001,256,20,5,Iñaki,Experiment_EEG_version,20,
Living_Things,../experiment_stimuli/bw_bc_bl/Living_Things/Birds/goldfinch_19.jpg,Birds,0,goldfinch,0,80,80,33,473.935316715,nV_V,2,473.960492174,475.248071752,1,2,1.77408038195,477.042701686,3,0,1.14272904792,5,6.0,32,bw,99.7824174274,2019_may_09_1616,001,256,20,5,Iñaki,Experiment_EEG_version,20,
Nonliving_Things,../experiment_stimuli/bw_bc_bl/Nonliving_Things/Kitchen_Uten/cup_7.jpg,Kitchen_Uten,0,cup,0,81,81,22,479.918317164,V_nV,2,479.947710052,481.201010945,1,2,4.30961821599,485.531303985,1,1,2.37523471236,5,6.5,32,bw,99.7824174274,2019_may_09_1616,001,256,20,5,Iñaki,Experiment_EEG_version,20,
Living_Things,../experiment_stimuli/bw_bc_bl/Living_Things/Marine_creatures/whale_12.jpg,Marine_creatures,0,whale,0,82,82,94,489.63945345,nV_V,2,489.665141741,490.962231698,1,2,0.832034016341,491.81481639,3,0,0.411119134706,5,7.0,32,bw,99.7824174274,2019_may_09_1616,001,256,20,5,Iñaki,Experiment_EEG_version,20,
Nonliving_Things,../experiment_stimuli/bw_bc_bl/Nonliving_Things/Furniture/couch_22.jpg,Furniture,0,couch,0,83,83,19,493.958864146,nV_V,1,493.991727627,495.251569734,0,2,2.39545771239,497.667586765,2,0,0.581483081874,5,7.5,32,bw,99.7824174274,2019_may_09_1616,001,256,20,5,Iñaki,Experiment_EEG_version,20,
Nonliving_Things,../experiment_stimuli/bw_bc_bl/Nonliving_Things/Vehicles/bus_9.jpg,Vehicles,0,bus,0,84,84,9,499.981949567,nV_V,1,500.011736076,501.264626133,1,1,1.34314716259,502.62833708,3,0,0.431167802466,5,6.5,32,bw,99.7824174274,2019_may_09_1616,001,256,20,5,Iñaki,Experiment_EEG_version,20,
Living_Things,../experiment_stimuli/bw_bc_bl/Living_Things/Birds/kiwi_12.jpg,Birds,0,kiwi,0,85,85,44,504.792396186,V_nV,1,504.811986555,506.045016073,1,1,0.250626718915,506.316193358,1,1,0.661672072723,5,6.0,32,bw,99.7824174274,2019_may_09_1616,001,256,20,5,Iñaki,Experiment_EEG_version,20,
Nonliving_Things,../experiment_stimuli/bw_bc_bl/Nonliving_Things/Buildings/palace_9.jpg,Buildings,0,palace,0,86,86,58,508.71092775,nV_V,1,508.739729864,510.013644966,1,1,2.54576113876,512.579965137,1,1,1.02244258263,5,6.5,32,bw,99.7824174274,2019_may_09_1616,001,256,20,5,Iñaki,Experiment_EEG_version,20,
Nonliving_Things,../experiment_stimuli/bw_bc_bl/Nonliving_Things/Buildings/church_10.jpg,Buildings,0,church,0,87,87,17,515.335308409,V_nV,2,515.368801497,516.658090762,1,2,2.11483153589,518.793472251,3,0,0.581334114084,5,6.0,32,bw,99.7824174274,2019_may_09_1616,001,256,20,5,Iñaki,Experiment_EEG_version,20,
Living_Things,../experiment_stimuli/bw_bc_bl/Living_Things/Animals/zebra_8.jpg,Animals,0,zebra,0,88,88,95,521.117883673,V_nV,1,521.137402946,522.390550555,0,2,11.7758290178,534.186960643,1,1,2.36537452632,5,6.0,32,bw,99.7824174274,2019_may_09_1616,001,256,20,5,Iñaki,Experiment_EEG_version,20,
Living_Things,../experiment_stimuli/bw_bc_bl/Living_Things/Birds/hen_23.jpg,Birds,0,hen,0,89,89,38,538.285223833,V_nV,1,538.306280633,539.597955988,1,1,1.5035054711,541.122022589,2,0,0.511335853764,5,7.5,32,bw,99.7824174274,2019_may_09_1616,001,256,20,5,Iñaki,Experiment_EEG_version,20,
Nonliving_Things,../experiment_stimuli/bw_bc_bl/Nonliving_Things/Tools/hammer_7.jpg,Tools,0,hammer,0,90,90,37,543.366241659,V_nV,2,543.395171696,544.678997877,0,1,2.0845961379,546.784174987,1,1,0.79194299652,5,6.0,32,bw,99.7824174274,2019_may_09_1616,001,256,20,5,Iñaki,Experiment_EEG_version,20,
Nonliving_Things,../experiment_stimuli/bw_bc_bl/Nonliving_Things/Kitchen_Uten/saucepan_22.jpg,Kitchen_Uten,0,saucepan,0,91,91,71,549.309161826,nV_V,1,549.331399346,550.631943938,1,1,0.842058662247,551.494559073,3,0,0.4211315742,5,6.0,32,bw,99.7824174274,2019_may_09_1616,001,256,20,5,Iñaki,Experiment_EEG_version,20,
Living_Things,../experiment_stimuli/bw_bc_bl/Living_Things/Birds/magpie_4.jpg,Birds,0,magpie,0,92,92,51,553.658651835,nV_V,2,553.669746048,554.961349897,0,1,0.581492175908,555.563425274,1,1,0.661665347077,5,6.0,32,bw,99.7824174274,2019_may_09_1616,001,256,20,5,Iñaki,Experiment_EEG_version,20,
Nonliving_Things,../experiment_stimuli/bw_bc_bl/Nonliving_Things/Vehicles/ship_13.jpg,Vehicles,0,ship,0,93,93,76,557.967981773,V_nV,2,557.997668401,559.290760697,1,2,0.621579022858,559.932887949,3,0,0.42113398376,5,6.5,32,bw,99.7824174274,2019_may_09_1616,001,256,20,5,Iñaki,Experiment_EEG_version,20,
Nonliving_Things,../experiment_stimuli/bw_bc_bl/Nonliving_Things/Musical_Inst/saxophone_17.jpg,Musical_Inst,0,saxophone,0,94,94,72,562.086939678,V_nV,2,562.118133262,563.379659311,0,1,0.190639848695,563.590839723,1,1,1.13269622562,5,7.5,32,bw,99.7824174274,2019_may_09_1616,001,256,20,5,Iñaki,Experiment_EEG_version,20,
Living_Things,../experiment_stimuli/bw_bc_bl/Living_Things/Birds/ostrich_6.jpg,Birds,0,ostrich,0,95,95,56,566.466460047,nV_V,2,566.482278294,567.75916994,0,1,3.94881518381,571.72856484,3,0,1.5636216105,5,6.0,32,bw,99.7824174274,2019_may_09_1616,001,256,20,5,Iñaki,Experiment_EEG_version,20,
