category,probe_path,subcategory,fixation_duration,label,trials.thisRepN,trials.thisTrialN,trials.thisN,trials.thisIndex,image_onset_time,response_window,correctAns,probe_onset,discrim_resptime,response.corr,response.keys,response.rt,visible_resptime,visible.keys,visible.corr,visible.rt,probeFrames,jitter2,n_square,experiment_color,frameRate,date,session,image_size,premask_dur,probeFrames,participant,expName,postmask_dur,
Nonliving_Things,../experiment_stimuli/bw_bc_bl/Nonliving_Things/Musical_Inst/guitar_12.jpg,Musical_Inst,0,guitar,0,0,0,36,3.73861144989,V_nV,2,3.78291028918,5.05136263033,1,2,0.761911712296,5.84415841557,3,0,0.350984574878,5,6.0,32,bw,99.777952025,2019_may_14_1018,013,256,20,5,iñaki,Experiment_EEG_version,20,
Nonliving_Things,../experiment_stimuli/bw_bc_bl/Nonliving_Things/Kitchen_Uten/frying-pan_26.jpg,Kitchen_Uten,0,frying-pan,0,1,1,31,7.92773644777,V_nV,2,7.94463329599,9.18033990316,0,1,0.591531404469,9.79243536259,1,1,0.330783529789,5,6.0,32,bw,99.777952025,2019_may_14_1018,013,256,20,5,iñaki,Experiment_EEG_version,20,
Nonliving_Things,../experiment_stimuli/bw_bc_bl/Nonliving_Things/Buildings/church_15.jpg,Buildings,0,church,0,2,2,17,11.8562572079,nV_V,1,11.8854733949,13.148963292,1,1,0.701774227724,13.8712957631,3,0,0.290861014859,5,6.5,32,bw,99.777952025,2019_may_14_1018,013,256,20,5,iñaki,Experiment_EEG_version,20,
Nonliving_Things,../experiment_stimuli/bw_bc_bl/Nonliving_Things/Furniture/bed_6.jpg,Furniture,0,bed,0,3,3,5,15.8950644112,V_nV,2,15.9138592738,17.1476554195,1,2,0.691739912785,17.8599969395,1,1,0.481264754198,5,7.0,32,bw,99.777952025,2019_may_14_1018,013,256,20,5,iñaki,Experiment_EEG_version,20,
Nonliving_Things,../experiment_stimuli/bw_bc_bl/Nonliving_Things/Furniture/Chest-of-drawers_25.jpg,Furniture,0,Chest-of-drawers,0,4,4,0,20.0741149969,V_nV,2,20.0925656725,21.3367605716,1,2,1.3431741962,22.7004964884,2,0,0.421159569873,5,6.0,32,bw,99.777952025,2019_may_14_1018,013,256,20,5,iñaki,Experiment_EEG_version,20,
Nonliving_Things,../experiment_stimuli/bw_bc_bl/Nonliving_Things/Buildings/house_6.jpg,Buildings,0,house,0,5,5,41,24.8545033465,V_nV,2,24.8685262098,26.1071304296,0,1,0.701761126227,26.8294917645,1,1,0.290853195474,5,6.0,32,bw,99.777952025,2019_may_14_1018,013,256,20,5,iñaki,Experiment_EEG_version,20,
Nonliving_Things,../experiment_stimuli/bw_bc_bl/Nonliving_Things/Buildings/cathedral_0.jpg,Buildings,0,cathedral,0,6,6,14,28.8531955339,V_nV,2,28.8676880295,30.1258796229,1,2,0.711770610884,30.8582130672,1,1,0.651635186397,5,7.5,32,bw,99.777952025,2019_may_14_1018,013,256,20,5,iñaki,Experiment_EEG_version,20,
Living_Things,../experiment_stimuli/bw_bc_bl/Living_Things/Animals/tapir_7.jpg,Animals,0,tapir,0,7,7,82,33.2427382329,nV_V,2,33.2742931083,34.5454749406,1,2,0.80200752907,35.3680382279,1,1,0.451198474097,5,6.0,32,bw,99.777952025,2019_may_14_1018,013,256,20,5,iñaki,Experiment_EEG_version,20,
Nonliving_Things,../experiment_stimuli/bw_bc_bl/Nonliving_Things/Furniture/couch_19.jpg,Furniture,0,couch,0,8,8,19,37.552122907,nV_V,1,37.5675659117,38.8748976811,0,2,4.20937544829,43.1048201548,2,0,0.571496871533,5,6.0,32,bw,99.777952025,2019_may_14_1018,013,256,20,5,iñaki,Experiment_EEG_version,20,
Nonliving_Things,../experiment_stimuli/bw_bc_bl/Nonliving_Things/Buildings/granary_24.jpg,Buildings,0,granary,0,9,9,35,45.4091995396,V_nV,2,45.4301720366,46.7219391151,1,2,0.601173078408,47.344040514,3,0,0.230725169298,5,6.0,32,bw,99.777952025,2019_may_14_1018,013,256,20,5,iñaki,Experiment_EEG_version,20,
Nonliving_Things,../experiment_stimuli/bw_bc_bl/Nonliving_Things/Vehicles/ship_8.jpg,Vehicles,0,ship,0,10,10,76,49.3076547604,nV_V,1,49.3268179937,50.5903493678,1,1,2.29521925322,52.9061230895,2,0,0.832059305627,5,6.5,32,bw,99.777952025,2019_may_14_1018,013,256,20,5,iñaki,Experiment_EEG_version,20,
Living_Things,../experiment_stimuli/bw_bc_bl/Living_Things/Animals/turtle_5.jpg,Animals,0,turtle,0,11,11,90,55.47105401,V_nV,1,55.4908859855,56.7437196521,1,1,1.26299455471,58.0272614463,2,0,0.310918445874,5,6.0,32,bw,99.777952025,2019_may_14_1018,013,256,20,5,iñaki,Experiment_EEG_version,20,
Living_Things,../experiment_stimuli/bw_bc_bl/Living_Things/Birds/ostrich_26.jpg,Birds,0,ostrich,0,12,12,56,60.0710527175,nV_V,2,60.0840086261,61.323678575,1,2,1.27302006917,62.6172608875,1,1,0.250764431257,5,6.5,32,bw,99.777952025,2019_may_14_1018,013,256,20,5,iñaki,Experiment_EEG_version,20,
Nonliving_Things,../experiment_stimuli/bw_bc_bl/Nonliving_Things/Kitchen_Uten/coking-pot_15.jpg,Kitchen_Uten,0,coking-pot,0,13,13,18,64.6009004486,V_nV,2,64.621844521,65.8936240702,1,2,1.13268480083,67.0468563773,3,0,0.260806031816,5,7.5,32,bw,99.777952025,2019_may_14_1018,013,256,20,5,iñaki,Experiment_EEG_version,20,
Living_Things,../experiment_stimuli/bw_bc_bl/Living_Things/Birds/penguin_17.jpg,Birds,0,penguin,0,14,14,61,69.0405457194,nV_V,2,69.0596457054,70.313220801,1,2,2.55580348725,72.8896012231,1,1,0.491284264834,5,6.0,32,bw,99.777952025,2019_may_14_1018,013,256,20,5,iñaki,Experiment_EEG_version,20,
Nonliving_Things,../experiment_stimuli/bw_bc_bl/Nonliving_Things/Vehicles/boat_6.jpg,Vehicles,0,boat,0,15,15,7,75.1137500691,V_nV,2,75.1390066663,76.4164865584,1,2,2.2952167191,78.7322724605,2,0,0.310894671769,5,6.0,32,bw,99.777952025,2019_may_14_1018,013,256,20,5,iñaki,Experiment_EEG_version,20,
Living_Things,../experiment_stimuli/bw_bc_bl/Living_Things/Marine_creatures/dolphin_13.jpg,Marine_creatures,0,dolphin,0,16,16,23,80.7760631868,nV_V,2,80.792842766,82.058767023,0,1,1.40327565093,83.4826124058,1,1,1.16275162582,5,6.0,32,bw,99.777952025,2019_may_14_1018,013,256,20,5,iñaki,Experiment_EEG_version,20,
Living_Things,../experiment_stimuli/bw_bc_bl/Living_Things/Animals/elephant_6.jpg,Animals,0,elephant,0,17,17,27,86.3782435114,V_nV,1,86.4011912729,87.6909965865,1,1,0.741678528429,88.4532513391,3,0,0.270834719122,5,6.0,32,bw,99.777952025,2019_may_14_1018,013,256,20,5,iñaki,Experiment_EEG_version,20,
Nonliving_Things,../experiment_stimuli/bw_bc_bl/Nonliving_Things/Buildings/factory_11.jpg,Buildings,0,factory,0,18,18,28,90.4571005356,V_nV,2,90.4744219231,91.7498171011,1,2,1.55360206979,93.3240147893,2,0,0.340984251932,5,8.0,32,bw,99.777952025,2019_may_14_1018,013,256,20,5,iñaki,Experiment_EEG_version,20,
Nonliving_Things,../experiment_stimuli/bw_bc_bl/Nonliving_Things/Kitchen_Uten/pot_14.jpg,Kitchen_Uten,0,pot,0,19,19,66,95.3978414534,V_nV,2,95.4150697409,96.6805359179,1,2,0.892162854434,97.5932754626,3,0,0.331024883257,5,7.0,32,bw,99.777952025,2019_may_14_1018,013,256,20,5,iñaki,Experiment_EEG_version,20,
Nonliving_Things,../experiment_stimuli/bw_bc_bl/Nonliving_Things/Furniture/bookcase_23.jpg,Furniture,0,bookcase,0,20,20,8,99.6571044919,V_nV,2,99.6756368019,100.90972641,0,1,0.551423249242,101.481700526,1,1,0.401094526344,5,6.5,32,bw,99.777952025,2019_may_14_1018,013,256,20,5,iñaki,Experiment_EEG_version,20,
Nonliving_Things,../experiment_stimuli/bw_bc_bl/Nonliving_Things/Kitchen_Uten/saucepan_10.jpg,Kitchen_Uten,0,saucepan,0,21,21,71,103.615710389,nV_V,1,103.64041134,104.888376741,0,2,1.18279920338,106.091722399,1,1,0.401099458628,5,6.0,32,bw,99.777952025,2019_may_14_1018,013,256,20,5,iñaki,Experiment_EEG_version,20,
Living_Things,../experiment_stimuli/bw_bc_bl/Living_Things/Marine_creatures/whale_1.jpg,Marine_creatures,0,whale,0,22,22,94,108.225730769,V_nV,1,108.24770239,109.508417267,1,1,0.872148069495,110.401111682,2,0,0.45123186853,5,7.0,32,bw,99.777952025,2019_may_14_1018,013,256,20,5,iñaki,Experiment_EEG_version,20,
Nonliving_Things,../experiment_stimuli/bw_bc_bl/Nonliving_Things/Musical_Inst/piano__11.jpg,Musical_Inst,0,piano,0,23,23,62,112.585204143,nV_V,1,112.608688604,113.857884574,0,2,1.44339150138,115.321833623,1,1,0.421154994576,5,6.5,32,bw,99.777952025,2019_may_14_1018,013,256,20,5,iñaki,Experiment_EEG_version,20,
Nonliving_Things,../experiment_stimuli/bw_bc_bl/Nonliving_Things/Furniture/table_5.jpg,Furniture,0,table,0,24,24,81,117.475838628,nV_V,1,117.503832622,118.78858835,1,1,0.842053902918,119.651250976,3,0,0.310898085241,5,6.5,32,bw,99.777952025,2019_may_14_1018,013,256,20,5,iñaki,Experiment_EEG_version,20,
Living_Things,../experiment_stimuli/bw_bc_bl/Living_Things/Insects/scorpion_25.jpg,Insects,0,scorpion,0,25,25,73,121.695004966,V_nV,1,121.719465195,122.987733655,1,1,0.6716934219,123.679975027,1,1,0.391091173398,5,6.0,32,bw,99.777952025,2019_may_14_1018,013,256,20,5,iñaki,Experiment_EEG_version,20,
Living_Things,../experiment_stimuli/bw_bc_bl/Living_Things/Animals/armadillo_14.jpg,Animals,0,armadillo,0,26,26,1,125.803936071,V_nV,1,125.818849704,127.116690327,1,1,0.751871311164,127.899141207,2,0,0.340950605809,5,7.0,32,bw,99.777952025,2019_may_14_1018,013,256,20,5,iñaki,Experiment_EEG_version,20,
Living_Things,../experiment_stimuli/bw_bc_bl/Living_Things/Marine_creatures/killer-whale_4.jpg,Marine_creatures,0,killer-whale,0,27,27,43,129.973014063,nV_V,2,129.994700508,131.275734932,1,2,1.02244610136,132.318726382,1,1,1.67385253526,5,6.0,32,bw,99.777952025,2019_may_14_1018,013,256,20,5,iñaki,Experiment_EEG_version,20,
Living_Things,../experiment_stimuli/bw_bc_bl/Living_Things/Birds/duck_1.jpg,Birds,0,duck,0,28,28,26,135.725514107,V_nV,1,135.741461266,137.048282565,1,1,1.08257661224,138.151413597,3,0,0.852077440009,5,6.0,32,bw,99.777952025,2019_may_14_1018,013,256,20,5,iñaki,Experiment_EEG_version,20,
Nonliving_Things,../experiment_stimuli/bw_bc_bl/Nonliving_Things/Furniture/lamp_24.jpg,Furniture,0,lamp,0,29,29,46,140.736396035,nV_V,1,140.756292028,142.039132919,1,1,3.30743382801,145.367120863,2,0,0.310907190025,5,6.0,32,bw,99.777952025,2019_may_14_1018,013,256,20,5,iñaki,Experiment_EEG_version,20,
Living_Things,../experiment_stimuli/bw_bc_bl/Living_Things/Birds/sparrow_3.jpg,Birds,0,sparrow,0,30,30,79,147.410908085,nV_V,2,147.424946892,148.703623199,1,2,0.601533907873,149.325726545,3,0,0.230740620289,5,6.0,32,bw,99.777952025,2019_may_14_1018,013,256,20,5,iñaki,Experiment_EEG_version,20,
Living_Things,../experiment_stimuli/bw_bc_bl/Living_Things/Animals/cat_1.jpg,Animals,0,cat,0,31,31,13,151.289340397,nV_V,2,151.306034293,152.551985217,0,1,0.611575260293,153.184125306,1,1,0.210677809839,5,6.0,32,bw,99.777952025,2019_may_14_1018,013,256,20,5,iñaki,Experiment_EEG_version,20,
Living_Things,../experiment_stimuli/bw_bc_bl/Living_Things/Marine_creatures/lobster_15.jpg,Marine_creatures,0,lobster,0,32,32,49,155.127698667,nV_V,2,155.142303946,156.400352215,1,2,0.852075394592,157.272970646,2,0,0.481289321324,5,7.0,32,bw,99.777952025,2019_may_14_1018,013,256,20,5,iñaki,Experiment_EEG_version,20,
Living_Things,../experiment_stimuli/bw_bc_bl/Living_Things/Birds/kiwi_7.jpg,Birds,0,kiwi,0,33,33,44,159.487160105,V_nV,1,159.504335615,160.749808905,1,1,1.39325517428,162.163623127,1,1,0.541395934531,5,7.0,32,bw,99.777952025,2019_may_14_1018,013,256,20,5,iñaki,Experiment_EEG_version,20,
Living_Things,../experiment_stimuli/bw_bc_bl/Living_Things/Birds/rooster_23.jpg,Birds,0,rooster,0,34,34,70,164.437956367,nV_V,2,164.458203299,165.720611979,1,2,1.65407852159,167.395257052,1,1,0.310927610786,5,7.0,32,bw,99.777952025,2019_may_14_1018,013,256,20,5,iñaki,Experiment_EEG_version,20,
Nonliving_Things,../experiment_stimuli/bw_bc_bl/Nonliving_Things/Vehicles/tractor_13.jpg,Vehicles,0,tractor,0,35,35,86,169.438801729,V_nV,2,169.459689603,170.731505907,1,2,0.491290960344,171.243336885,3,0,0.260785445629,5,6.0,32,bw,99.777952025,2019_may_14_1018,013,256,20,5,iñaki,Experiment_EEG_version,20,
Living_Things,../experiment_stimuli/bw_bc_bl/Living_Things/Birds/seagull_14.jpg,Birds,0,seagull,0,36,36,74,173.237048257,nV_V,2,173.250029913,174.499711444,1,2,1.97451840609,176.49478274,1,1,0.431165486749,5,6.5,32,bw,99.777952025,2019_may_14_1018,013,256,20,5,iñaki,Experiment_EEG_version,20,
Nonliving_Things,../experiment_stimuli/bw_bc_bl/Nonliving_Things/Furniture/armchair_1.jpg,Furniture,0,armchair,0,37,37,2,178.658844883,nV_V,1,178.682252672,179.941524724,1,1,0.862095070595,180.824219578,3,0,0.320950331865,5,6.5,32,bw,99.777952025,2019_may_14_1018,013,256,20,5,iñaki,Experiment_EEG_version,20,
Living_Things,../experiment_stimuli/bw_bc_bl/Living_Things/Animals/tiger_25.jpg,Animals,0,tiger,0,38,38,84,182.878009481,V_nV,1,182.898043769,184.140655623,1,1,0.631618743704,184.792840813,1,1,2.72615336336,5,6.5,32,bw,99.777952025,2019_may_14_1018,013,256,20,5,iñaki,Experiment_EEG_version,20,
Nonliving_Things,../experiment_stimuli/bw_bc_bl/Nonliving_Things/Musical_Inst/tuba_26.jpg,Musical_Inst,0,tuba,0,39,39,89,189.25186969,nV_V,1,189.274014155,190.524529069,1,1,2.04467069107,192.58974942,3,0,0.340807867062,5,7.5,32,bw,99.777952025,2019_may_14_1018,013,256,20,5,iñaki,Experiment_EEG_version,20,
Living_Things,../experiment_stimuli/bw_bc_bl/Living_Things/Animals/cow_8.jpg,Animals,0,cow,0,40,40,20,194.663630012,nV_V,2,194.67944938,195.916269858,0,1,0.601587008452,196.538397114,1,1,0.6516386976,5,6.0,32,bw,99.777952025,2019_may_14_1018,013,256,20,5,iñaki,Experiment_EEG_version,20,
Nonliving_Things,../experiment_stimuli/bw_bc_bl/Nonliving_Things/Musical_Inst/violin_24.jpg,Musical_Inst,0,violin,0,41,41,92,198.922893066,nV_V,1,198.942047769,200.185546742,0,2,2.69608437689,202.90216784,1,1,0.401097503782,5,6.0,32,bw,99.777952025,2019_may_14_1018,013,256,20,5,iñaki,Experiment_EEG_version,20,
Living_Things,../experiment_stimuli/bw_bc_bl/Living_Things/Animals/giraffe_6.jpg,Animals,0,giraffe,0,42,42,32,205.036176871,nV_V,2,205.058929944,206.318867076,0,1,0.982386212505,207.321803893,1,1,0.872116190265,5,6.0,32,bw,99.777952025,2019_may_14_1018,013,256,20,5,iñaki,Experiment_EEG_version,20,
Living_Things,../experiment_stimuli/bw_bc_bl/Living_Things/Birds/pigeon_16.jpg,Birds,0,pigeon,0,43,43,63,209.926813563,nV_V,2,209.945201999,211.219525662,1,2,0.801964221406,212.042043676,2,0,1.51335476257,5,8.0,32,bw,99.777952025,2019_may_14_1018,013,256,20,5,iñaki,Experiment_EEG_version,20,
Nonliving_Things,../experiment_stimuli/bw_bc_bl/Nonliving_Things/Vehicles/plane_5.jpg,Vehicles,0,plane,0,44,44,64,215.288466325,V_nV,2,215.320781885,216.581171774,1,2,1.23291156837,217.834637262,1,1,0.29087032302,5,7.5,32,bw,99.777952025,2019_may_14_1018,013,256,20,5,iñaki,Experiment_EEG_version,20,
Living_Things,../experiment_stimuli/bw_bc_bl/Living_Things/Birds/owl_4.jpg,Birds,0,owl,0,45,45,57,219.858424557,nV_V,2,219.8762817,221.151114585,1,2,2.81637668022,223.988056843,1,1,0.591529675177,5,6.0,32,bw,99.777952025,2019_may_14_1018,013,256,20,5,iñaki,Experiment_EEG_version,20,
Nonliving_Things,../experiment_stimuli/bw_bc_bl/Nonliving_Things/Buildings/palace_25.jpg,Buildings,0,palace,0,46,46,58,226.312428197,V_nV,2,226.336555697,227.645228094,1,2,2.24510622618,229.910889804,2,0,0.721786418755,5,6.0,32,bw,99.777952025,2019_may_14_1018,013,256,20,5,iñaki,Experiment_EEG_version,20,
Living_Things,../experiment_stimuli/bw_bc_bl/Living_Things/Animals/cheetah_14.jpg,Animals,0,cheetah,0,47,47,16,232.365587706,nV_V,2,232.38331608,233.678343101,1,2,1.93445282202,235.633380139,1,1,0.310915028444,5,7.0,32,bw,99.777952025,2019_may_14_1018,013,256,20,5,iñaki,Experiment_EEG_version,20,
Living_Things,../experiment_stimuli/bw_bc_bl/Living_Things/Animals/rhino_17.jpg,Animals,0,rhino,0,48,48,68,237.677134144,nV_V,2,237.700673525,239.029994002,1,2,0.912205244123,239.962734734,3,0,0.290847503813,5,6.0,32,bw,99.777952025,2019_may_14_1018,013,256,20,5,iñaki,Experiment_EEG_version,20,
Nonliving_Things,../experiment_stimuli/bw_bc_bl/Nonliving_Things/Musical_Inst/trumpet_13.jpg,Musical_Inst,0,trumpet,0,49,49,88,241.986505036,V_nV,2,242.019498184,243.319296855,1,2,2.82637651445,246.166221191,3,0,0.270838876662,5,6.0,32,bw,99.777952025,2019_may_14_1018,013,256,20,5,iñaki,Experiment_EEG_version,20,
Nonliving_Things,../experiment_stimuli/bw_bc_bl/Nonliving_Things/Kitchen_Uten/cup_23.jpg,Kitchen_Uten,0,cup,0,50,50,22,248.16994151,V_nV,2,248.189102826,249.472674936,1,2,0.681738510728,250.174972701,3,0,0.250758450245,5,6.0,32,bw,99.777952025,2019_may_14_1018,013,256,20,5,iñaki,Experiment_EEG_version,20,
Living_Things,../experiment_stimuli/bw_bc_bl/Living_Things/Animals/horse_11.jpg,Animals,0,horse,0,51,51,40,252.158617544,V_nV,1,252.182108937,253.441303035,1,1,1.65384978452,255.115707551,2,0,1.17262598424,5,8.0,32,bw,99.777952025,2019_may_14_1018,013,256,20,5,iñaki,Experiment_EEG_version,20,
Nonliving_Things,../experiment_stimuli/bw_bc_bl/Nonliving_Things/Furniture/bedside-table_2.jpg,Furniture,0,bedside-table,0,52,52,6,258.021357581,nV_V,1,258.047418475,259.294023647,1,1,0.9723397739,260.286917274,1,1,0.340963429073,5,6.0,32,bw,99.777952025,2019_may_14_1018,013,256,20,5,iñaki,Experiment_EEG_version,20,
Living_Things,../experiment_stimuli/bw_bc_bl/Living_Things/Marine_creatures/pomfret_23.jpg,Marine_creatures,0,pomfret,0,53,53,65,262.360795324,V_nV,1,262.378513887,263.653505822,0,2,2.69611967716,266.370214949,1,1,0.381047602976,5,6.0,32,bw,99.777952025,2019_may_14_1018,013,256,20,5,iñaki,Experiment_EEG_version,20,
Nonliving_Things,../experiment_stimuli/bw_bc_bl/Nonliving_Things/Tools/hammer_13.jpg,Tools,0,hammer,0,54,54,37,268.484103577,nV_V,1,268.506442167,269.806882399,1,1,1.10261464858,270.930050472,2,0,1.0525212987,5,6.5,32,bw,99.777952025,2019_may_14_1018,013,256,20,5,iñaki,Experiment_EEG_version,20,
Nonliving_Things,../experiment_stimuli/bw_bc_bl/Nonliving_Things/Vehicles/train_0.jpg,Vehicles,0,train,0,55,55,87,273.715478708,V_nV,2,273.737137759,275.028229847,1,2,1.03246664209,276.081231921,2,0,0.451208996703,5,7.0,32,bw,99.777952025,2019_may_14_1018,013,256,20,5,iñaki,Experiment_EEG_version,20,
Nonliving_Things,../experiment_stimuli/bw_bc_bl/Nonliving_Things/Vehicles/van_12.jpg,Vehicles,0,van,0,56,56,91,278.265370776,nV_V,1,278.280590487,279.568095108,1,1,0.621576282079,280.210210968,3,0,0.200655844121,5,6.0,32,bw,99.777952025,2019_may_14_1018,013,256,20,5,iñaki,Experiment_EEG_version,20,
Nonliving_Things,../experiment_stimuli/bw_bc_bl/Nonliving_Things/Kitchen_Uten/fondue_26.jpg,Kitchen_Uten,0,fondue,0,57,57,30,282.143794983,nV_V,1,282.166886213,283.426484835,1,1,1.74404346233,285.191094348,2,0,0.781918692926,5,6.0,32,bw,99.777952025,2019_may_14_1018,013,256,20,5,iñaki,Experiment_EEG_version,20,
Nonliving_Things,../experiment_stimuli/bw_bc_bl/Nonliving_Things/Furniture/chair_10.jpg,Furniture,0,chair,0,58,58,15,287.705890799,nV_V,1,287.717214175,288.97856964,1,1,0.711778990633,289.710884152,2,0,0.381070542498,5,6.0,32,bw,99.777952025,2019_may_14_1018,013,256,20,5,iñaki,Experiment_EEG_version,20,
Living_Things,../experiment_stimuli/bw_bc_bl/Living_Things/Insects/butterfly_25.jpg,Insects,0,butterfly,0,59,59,10,291.824844772,nV_V,2,291.838549647,293.087482726,1,2,0.741840845789,293.849892589,1,1,0.320920629543,5,6.5,32,bw,99.777952025,2019_may_14_1018,013,256,20,5,iñaki,Experiment_EEG_version,20,
Living_Things,../experiment_stimuli/bw_bc_bl/Living_Things/Insects/dragonfly_19.jpg,Insects,0,dragonfly,0,60,60,24,295.903735066,nV_V,2,295.924527164,297.196434726,1,2,0.511341383564,297.728309876,3,0,0.24076748814,5,6.0,32,bw,99.777952025,2019_may_14_1018,013,256,20,5,iñaki,Experiment_EEG_version,20,
Nonliving_Things,../experiment_stimuli/bw_bc_bl/Nonliving_Things/Furniture/rocking-chair_22.jpg,Furniture,0,rocking-chair,0,61,61,69,299.701966226,nV_V,1,299.721897065,300.964623004,1,1,0.721822952095,301.70700368,3,0,0.230738973652,5,7.0,32,bw,99.777952025,2019_may_14_1018,013,256,20,5,iñaki,Experiment_EEG_version,20,
Living_Things,../experiment_stimuli/bw_bc_bl/Living_Things/Birds/barn-owl_12.jpg,Birds,0,barn-owl,0,62,62,4,303.670598175,nV_V,2,303.696107656,304.933243979,0,1,0.832039234345,305.785841942,1,1,0.401093060209,5,6.5,32,bw,99.777952025,2019_may_14_1018,013,256,20,5,iñaki,Experiment_EEG_version,20,
Living_Things,../experiment_stimuli/bw_bc_bl/Living_Things/Marine_creatures/manatee_1.jpg,Marine_creatures,0,manatee,0,63,63,52,307.919849793,nV_V,2,307.938994474,309.192496447,1,2,1.2629738822,310.476018241,2,0,0.260786103259,5,6.5,32,bw,99.777952025,2019_may_14_1018,013,256,20,5,iñaki,Experiment_EEG_version,20,
Living_Things,../experiment_stimuli/bw_bc_bl/Living_Things/Birds/goldfinch_0.jpg,Birds,0,goldfinch,0,64,64,33,312.469719907,nV_V,2,312.481713652,313.722347599,1,2,0.521377529134,314.274332133,1,1,0.260786750296,5,6.5,32,bw,99.777952025,2019_may_14_1018,013,256,20,5,iñaki,Experiment_EEG_version,20,
Living_Things,../experiment_stimuli/bw_bc_bl/Living_Things/Marine_creatures/crab_2.jpg,Marine_creatures,0,crab,0,65,65,21,316.267975957,nV_V,2,316.273147417,317.520603315,1,2,0.561460334982,318.112650764,1,1,0.360998920223,5,6.0,32,bw,99.777952025,2019_may_14_1018,013,256,20,5,iñaki,Experiment_EEG_version,20,
Living_Things,../experiment_stimuli/bw_bc_bl/Living_Things/Animals/zebra_12.jpg,Animals,0,zebra,0,66,66,95,320.206533491,V_nV,1,320.228321822,321.489231248,1,1,1.40329860937,322.913105052,1,1,0.982377051143,5,6.5,32,bw,99.777952025,2019_may_14_1018,013,256,20,5,iñaki,Experiment_EEG_version,20,
Living_Things,../experiment_stimuli/bw_bc_bl/Living_Things/Birds/goose_11.jpg,Birds,0,goose,0,67,67,34,325.628327451,nV_V,2,325.647165829,326.931064099,1,2,0.852081947261,327.803686891,3,0,0.290856849577,5,6.0,32,bw,99.777952025,2019_may_14_1018,013,256,20,5,iñaki,Experiment_EEG_version,20,
Living_Things,../experiment_stimuli/bw_bc_bl/Living_Things/Birds/pelican_19.jpg,Birds,0,pelican,0,68,68,60,329.827449276,V_nV,1,329.849368677,331.100135636,1,1,0.681711217854,331.802391823,2,0,0.260786644707,5,6.5,32,bw,99.777952025,2019_may_14_1018,013,256,20,5,iñaki,Experiment_EEG_version,20,
Nonliving_Things,../experiment_stimuli/bw_bc_bl/Nonliving_Things/Tools/axe_19.jpg,Tools,0,axe,0,69,69,3,333.796077165,V_nV,2,333.829162669,335.06874928,1,2,0.541411922837,335.630702992,1,1,0.651638539741,5,6.5,32,bw,99.777952025,2019_may_14_1018,013,256,20,5,iñaki,Experiment_EEG_version,20,
Nonliving_Things,../experiment_stimuli/bw_bc_bl/Nonliving_Things/Vehicles/car_19.jpg,Vehicles,0,car,0,70,70,11,338.01525321,nV_V,1,338.027581353,339.28791825,1,1,0.741838586284,340.050303039,3,0,0.200657254085,5,6.0,32,bw,99.777952025,2019_may_14_1018,013,256,20,5,iñaki,Experiment_EEG_version,20,
Living_Things,../experiment_stimuli/bw_bc_bl/Living_Things/Marine_creatures/narwhal_22.jpg,Marine_creatures,0,narwhal,0,71,71,55,341.983876726,nV_V,2,341.999596768,343.236500178,0,1,0.591517426888,343.848591968,1,1,0.290856766806,5,6.0,32,bw,99.777952025,2019_may_14_1018,013,256,20,5,iñaki,Experiment_EEG_version,20,
Nonliving_Things,../experiment_stimuli/bw_bc_bl/Nonliving_Things/Kitchen_Uten/teapot_12.jpg,Kitchen_Uten,0,teapot,0,72,72,83,345.872346075,V_nV,2,345.906054837,347.175063358,1,2,2.37538154126,349.570989665,3,0,0.511330128124,5,6.5,32,bw,99.777952025,2019_may_14_1018,013,256,20,5,iñaki,Experiment_EEG_version,20,
Living_Things,../experiment_stimuli/bw_bc_bl/Living_Things/Birds/magpie_9.jpg,Birds,0,magpie,0,73,73,51,351.815252054,nV_V,2,351.828876066,353.077893915,0,1,0.862096668512,353.960583657,1,1,0.481263746682,5,6.5,32,bw,99.777952025,2019_may_14_1018,013,256,20,5,iñaki,Experiment_EEG_version,20,
Living_Things,../experiment_stimuli/bw_bc_bl/Living_Things/Animals/lioness_14.jpg,Animals,0,lioness,0,74,74,48,356.174728203,V_nV,1,356.190062389,357.447393371,1,1,0.781927173608,358.249910088,1,1,0.260803182202,5,6.0,32,bw,99.777952025,2019_may_14_1018,013,256,20,5,iñaki,Experiment_EEG_version,20,
Nonliving_Things,../experiment_stimuli/bw_bc_bl/Nonliving_Things/Musical_Inst/drum_6.jpg,Musical_Inst,0,drum,0,75,75,25,360.243576389,nV_V,1,360.262794524,361.556330712,1,1,0.601560208248,362.178491208,3,0,0.180613375793,5,6.0,32,bw,99.777952025,2019_may_14_1018,013,256,20,5,iñaki,Experiment_EEG_version,20,
Living_Things,../experiment_stimuli/bw_bc_bl/Living_Things/Birds/hummingbird_6.jpg,Birds,0,hummingbird,0,76,76,42,364.09194003,nV_V,2,364.110508945,365.364612977,0,1,0.741869611957,366.127042633,1,1,0.25076819805,5,6.5,32,bw,99.777952025,2019_may_14_1018,013,256,20,5,iñaki,Experiment_EEG_version,20,
Living_Things,../experiment_stimuli/bw_bc_bl/Living_Things/Birds/raven_4.jpg,Birds,0,raven,0,77,77,67,368.110669822,nV_V,2,368.130084397,369.413410868,1,2,0.651645915583,370.085595087,3,0,0.230720842141,5,6.0,32,bw,99.777952025,2019_may_14_1018,013,256,20,5,iñaki,Experiment_EEG_version,20,
Living_Things,../experiment_stimuli/bw_bc_bl/Living_Things/Insects/ladybird_19.jpg,Insects,0,ladybird,0,78,78,45,372.0492374,V_nV,1,372.067563616,373.321922888,0,2,2.55577702896,375.898262856,1,1,0.411110912857,5,7.0,32,bw,99.777952025,2019_may_14_1018,013,256,20,5,iñaki,Experiment_EEG_version,20,
Nonliving_Things,../experiment_stimuli/bw_bc_bl/Nonliving_Things/Kitchen_Uten/small-saucepan_25.jpg,Kitchen_Uten,0,small-saucepan,0,79,79,77,378.042291097,V_nV,2,378.059072244,379.334988445,1,2,0.902185598097,380.257702895,3,0,0.160598151095,5,6.0,32,bw,99.777952025,2019_may_14_1018,013,256,20,5,iñaki,Experiment_EEG_version,20,
Living_Things,../experiment_stimuli/bw_bc_bl/Living_Things/Birds/hen_1.jpg,Birds,0,hen,0,80,80,38,382.151201026,nV_V,2,382.169047583,383.403831338,0,1,0.501314012334,383.925720398,1,1,0.28082510992,5,6.0,32,bw,99.777952025,2019_may_14_1018,013,256,20,5,iñaki,Experiment_EEG_version,20,
Nonliving_Things,../experiment_stimuli/bw_bc_bl/Nonliving_Things/Buildings/mill_5.jpg,Buildings,0,mill,0,81,81,53,385.9394291,V_nV,2,385.955476502,387.202076528,1,2,0.811992021569,388.034665277,1,1,0.481295836449,5,7.0,32,bw,99.777952025,2019_may_14_1018,013,256,20,5,iñaki,Experiment_EEG_version,20,
Nonliving_Things,../experiment_stimuli/bw_bc_bl/Nonliving_Things/Furniture/filling-cabinet_23.jpg,Furniture,0,filling-cabinet,0,82,82,29,390.248799642,nV_V,1,390.262971071,391.541512839,1,1,0.641620604089,392.203675638,3,0,0.230725785892,5,6.5,32,bw,99.777952025,2019_may_14_1018,013,256,20,5,iñaki,Experiment_EEG_version,20,
Living_Things,../experiment_stimuli/bw_bc_bl/Living_Things/Marine_creatures/sperm-whale_9.jpg,Marine_creatures,0,sperm-whale,0,83,83,80,394.167314606,nV_V,2,394.179060254,395.409935994,0,1,0.701749115309,396.132224736,1,1,0.290857702726,5,6.5,32,bw,99.777952025,2019_may_14_1018,013,256,20,5,iñaki,Experiment_EEG_version,20,
Nonliving_Things,../experiment_stimuli/bw_bc_bl/Nonliving_Things/Vehicles/bus_22.jpg,Vehicles,0,bus,0,84,84,9,398.166037402,V_nV,2,398.181888476,399.458736731,1,2,1.02245122159,400.501715031,3,0,0.180622353102,5,7.0,32,bw,99.777952025,2019_may_14_1018,013,256,20,5,iñaki,Experiment_EEG_version,20,
Nonliving_Things,../experiment_stimuli/bw_bc_bl/Nonliving_Things/Furniture/sofa_9.jpg,Furniture,0,sofa,0,85,85,78,402.415277765,nV_V,1,402.439354172,403.687918038,1,1,0.812016190263,404.520483528,1,1,0.21068385843,5,6.0,32,bw,99.777952025,2019_may_14_1018,013,256,20,5,iñaki,Experiment_EEG_version,20,
Living_Things,../experiment_stimuli/bw_bc_bl/Living_Things/Birds/toucan_20.jpg,Birds,0,toucan,0,86,86,85,406.464065291,nV_V,2,406.481868709,407.766781465,0,1,2.1348720534,409.922205761,1,1,0.371046994289,5,6.0,32,bw,99.777952025,2019_may_14_1018,013,256,20,5,iñaki,Experiment_EEG_version,20,
Living_Things,../experiment_stimuli/bw_bc_bl/Living_Things/Animals/lynx_25.jpg,Animals,0,lynx,0,87,87,50,412.026140036,V_nV,1,412.043135631,413.338895442,1,1,1.06252191839,414.421986224,2,0,0.310887416243,5,6.5,32,bw,99.777952025,2019_may_14_1018,013,256,20,5,iñaki,Experiment_EEG_version,20,
Nonliving_Things,../experiment_stimuli/bw_bc_bl/Nonliving_Things/Vehicles/motorbike_8.jpg,Vehicles,0,motorbike,0,88,88,54,416.465792555,nV_V,1,416.482788274,417.778543254,1,1,0.8120113482,418.611121222,3,0,0.290853300714,5,6.0,32,bw,99.777952025,2019_may_14_1018,013,256,20,5,iñaki,Experiment_EEG_version,20,
Nonliving_Things,../experiment_stimuli/bw_bc_bl/Nonliving_Things/Furniture/wardrobe_8.jpg,Furniture,0,wardrobe,0,89,89,93,420.64487884,nV_V,1,420.661086017,421.927576612,1,1,0.761723328033,422.709841405,3,0,0.260819166899,5,7.5,32,bw,99.777952025,2019_may_14_1018,013,256,20,5,iñaki,Experiment_EEG_version,20,
Nonliving_Things,../experiment_stimuli/bw_bc_bl/Nonliving_Things/Buildings/castle_10.jpg,Buildings,0,castle,0,90,90,12,424.703697613,nV_V,1,424.719855675,425.946316644,1,1,0.39109432738,426.357938226,1,1,0.330961711239,5,6.0,32,bw,99.777952025,2019_may_14_1018,013,256,20,5,iñaki,Experiment_EEG_version,20,
Living_Things,../experiment_stimuli/bw_bc_bl/Living_Things/Birds/partridge_0.jpg,Birds,0,partridge,0,91,91,59,428.421778744,V_nV,1,428.441256323,429.674411918,0,2,1.15273214527,430.847739144,1,1,0.270806918619,5,6.0,32,bw,99.777952025,2019_may_14_1018,013,256,20,5,iñaki,Experiment_EEG_version,20,
Living_Things,../experiment_stimuli/bw_bc_bl/Living_Things/Animals/hippopotamus_3.jpg,Animals,0,hippopotamus,0,92,92,39,432.861454537,V_nV,1,432.875974875,434.14414507,1,1,0.711777824908,434.876454664,3,0,0.250624241715,5,6.0,32,bw,99.777952025,2019_may_14_1018,013,256,20,5,iñaki,Experiment_EEG_version,20,
Living_Things,../experiment_stimuli/bw_bc_bl/Living_Things/Marine_creatures/shark_0.jpg,Marine_creatures,0,shark,0,93,93,75,436.860125759,nV_V,2,436.874724445,438.112752015,0,1,0.701773938083,438.845107252,1,1,0.290855357249,5,6.0,32,bw,99.777952025,2019_may_14_1018,013,256,20,5,iñaki,Experiment_EEG_version,20,
Nonliving_Things,../experiment_stimuli/bw_bc_bl/Nonliving_Things/Musical_Inst/saxophone_25.jpg,Musical_Inst,0,saxophone,0,94,94,72,440.868841014,nV_V,1,440.882430082,442.1214738,0,2,0.591508983402,442.733549477,1,1,0.481283956906,5,6.5,32,bw,99.777952025,2019_may_14_1018,013,256,20,5,iñaki,Experiment_EEG_version,20,
Nonliving_Things,../experiment_stimuli/bw_bc_bl/Nonliving_Things/Furniture/lectern_3.jpg,Furniture,0,lectern,0,95,95,47,444.947704978,nV_V,1,444.963967437,446.26046394,1,1,0.721794489888,447.00282382,2,0,0.280676446448,5,6.0,32,bw,99.777952025,2019_may_14_1018,013,256,20,5,iñaki,Experiment_EEG_version,20,
