category,probe_path,subcategory,fixation_duration,label,trials.thisRepN,trials.thisTrialN,trials.thisN,trials.thisIndex,image_onset_time,response_window,correctAns,probe_onset,discrim_resptime,response.corr,response.keys,response.rt,visible_resptime,visible.keys,visible.corr,visible.rt,probeFrames,jitter2,n_square,experiment_color,frameRate,date,session,image_size,premask_dur,probeFrames,participant,expName,postmask_dur,
Nonliving_Things,../experiment_stimuli/bw_bc_bl/Nonliving_Things/Musical_Inst/drum_14.jpg,Musical_Inst,0,drum,0,0,0,25,3.73414735199,V_nV,2,3.76753212232,5.03687983024,1,2,1.17280825623,6.24051399087,3,0,0.330784142367,5,6.5,32,bw,99.7809202841,2019_may_14_1049,016,256,20,5,iñaki,Experiment_EEG_version,20,
Nonliving_Things,../experiment_stimuli/bw_bc_bl/Nonliving_Things/Kitchen_Uten/saucepan_15.jpg,Kitchen_Uten,0,saucepan,0,1,1,71,8.30407270073,V_nV,2,8.31743760739,9.55670479871,1,2,1.91441407532,11.4916778202,1,1,0.701748081658,5,6.0,32,bw,99.7809202841,2019_may_14_1049,016,256,20,5,iñaki,Experiment_EEG_version,20,
Nonliving_Things,../experiment_stimuli/bw_bc_bl/Nonliving_Things/Furniture/table_25.jpg,Furniture,0,table,0,2,2,81,13.926297637,V_nV,2,13.9419348717,15.1989734404,1,2,0.912217728735,16.1317286494,2,0,0.290857037471,5,8.0,32,bw,99.7809202841,2019_may_14_1049,016,256,20,5,iñaki,Experiment_EEG_version,20,
Nonliving_Things,../experiment_stimuli/bw_bc_bl/Nonliving_Things/Musical_Inst/trumpet_10.jpg,Musical_Inst,0,trumpet,0,3,3,88,18.1555127334,nV_V,1,18.174071043,19.4181390005,1,1,0.822019889078,20.2607033057,1,1,0.270824873296,5,6.0,32,bw,99.7809202841,2019_may_14_1049,016,256,20,5,iñaki,Experiment_EEG_version,20,
Nonliving_Things,../experiment_stimuli/bw_bc_bl/Nonliving_Things/Tools/hammer_18.jpg,Tools,0,hammer,0,4,4,37,22.264418008,V_nV,2,22.2854611806,23.5571391598,1,2,1.1026182124,24.6802964616,1,1,0.320917637029,5,6.0,32,bw,99.7809202841,2019_may_14_1049,016,256,20,5,iñaki,Experiment_EEG_version,20,
Nonliving_Things,../experiment_stimuli/bw_bc_bl/Nonliving_Things/Vehicles/car_14.jpg,Vehicles,0,car,0,5,5,11,26.7341332505,V_nV,2,26.7511421501,28.0368641011,1,2,1.21286415268,29.2702778653,3,0,0.250794517458,5,6.5,32,bw,99.7809202841,2019_may_14_1049,016,256,20,5,iñaki,Experiment_EEG_version,20,
Living_Things,../experiment_stimuli/bw_bc_bl/Living_Things/Animals/cheetah_4.jpg,Animals,0,cheetah,0,6,6,16,31.2539522642,nV_V,2,31.2676910528,32.5366443116,1,2,0.892007992021,33.4492233509,1,1,0.290852800536,5,6.5,32,bw,99.7809202841,2019_may_14_1049,016,256,20,5,iñaki,Experiment_EEG_version,20,
Living_Things,../experiment_stimuli/bw_bc_bl/Living_Things/Insects/butterfly_24.jpg,Insects,0,butterfly,0,7,7,10,35.4731255349,nV_V,2,35.4942948332,36.7758658662,1,2,1.22288218926,38.0192873858,3,0,0.280836511811,5,7.0,32,bw,99.7809202841,2019_may_14_1049,016,256,20,5,iñaki,Experiment_EEG_version,20,
Living_Things,../experiment_stimuli/bw_bc_bl/Living_Things/Birds/hen_26.jpg,Birds,0,hen,0,8,8,38,40.0330401699,V_nV,1,40.0473011987,41.3157262696,1,1,1.54360135196,42.8798755342,2,0,1.20283293905,5,7.5,32,bw,99.7809202841,2019_may_14_1049,016,256,20,5,iñaki,Experiment_EEG_version,20,
Nonliving_Things,../experiment_stimuli/bw_bc_bl/Nonliving_Things/Vehicles/tractor_14.jpg,Vehicles,0,tractor,0,9,9,86,45.8156050801,V_nV,2,45.8352923435,47.0882741658,1,2,0.932260235073,48.0410841703,3,0,0.340815645352,5,6.0,32,bw,99.7809202841,2019_may_14_1049,016,256,20,5,iñaki,Experiment_EEG_version,20,
Living_Things,../experiment_stimuli/bw_bc_bl/Living_Things/Birds/barn-owl_3.jpg,Birds,0,barn-owl,0,10,10,4,50.1149468418,V_nV,1,50.1337202496,51.3575547601,1,1,1.87432579591,53.2524395472,1,1,0.330953666242,5,6.5,32,bw,99.7809202841,2019_may_14_1049,016,256,20,5,iñaki,Experiment_EEG_version,20,
Nonliving_Things,../experiment_stimuli/bw_bc_bl/Nonliving_Things/Furniture/couch_8.jpg,Furniture,0,couch,0,11,11,19,55.3162551292,V_nV,2,55.3332314654,56.5889251922,1,2,0.972338115796,57.5817965328,1,1,0.371040847618,5,8.0,32,bw,99.7809202841,2019_may_14_1049,016,256,20,5,iñaki,Experiment_EEG_version,20,
Living_Things,../experiment_stimuli/bw_bc_bl/Living_Things/Birds/goose_19.jpg,Birds,0,goose,0,12,12,34,59.6857573822,V_nV,1,59.7056792248,60.9684452489,1,1,0.521360807586,61.5103476309,3,0,0.270825940883,5,6.5,32,bw,99.7809202841,2019_may_14_1049,016,256,20,5,iñaki,Experiment_EEG_version,20,
Nonliving_Things,../experiment_stimuli/bw_bc_bl/Nonliving_Things/Kitchen_Uten/frying-pan_9.jpg,Kitchen_Uten,0,frying-pan,0,13,13,31,63.5140753519,nV_V,1,63.533149406,64.7767225958,1,1,1.35317063914,66.1504680985,1,1,0.290855071158,5,6.5,32,bw,99.7809202841,2019_may_14_1049,016,256,20,5,iñaki,Experiment_EEG_version,20,
Living_Things,../experiment_stimuli/bw_bc_bl/Living_Things/Birds/ostrich_2.jpg,Birds,0,ostrich,0,14,14,56,68.1742011833,V_nV,1,68.1864375343,69.4368639232,1,1,0.922221461544,70.3796185568,1,1,0.250787404715,5,7.0,32,bw,99.7809202841,2019_may_14_1049,016,256,20,5,iñaki,Experiment_EEG_version,20,
Living_Things,../experiment_stimuli/bw_bc_bl/Living_Things/Marine_creatures/crab_0.jpg,Marine_creatures,0,crab,0,15,15,21,72.3633091663,nV_V,2,72.3788635827,73.6459973563,1,2,1.43334192352,75.0999013126,2,0,0.241014334199,5,7.5,32,bw,99.7809202841,2019_may_14_1049,016,256,20,5,iñaki,Experiment_EEG_version,20,
Nonliving_Things,../experiment_stimuli/bw_bc_bl/Nonliving_Things/Musical_Inst/piano__6.jpg,Musical_Inst,0,piano,0,16,16,62,77.0735592347,V_nV,2,77.0898543397,78.3462161061,0,1,1.4032730569,79.7700528274,1,1,0.32091079111,5,6.0,32,bw,99.7809202841,2019_may_14_1049,016,256,20,5,iñaki,Experiment_EEG_version,20,
Living_Things,../experiment_stimuli/bw_bc_bl/Living_Things/Insects/scorpion_2.jpg,Insects,0,scorpion,0,17,17,73,81.8238736502,V_nV,1,81.8403641247,83.1065762048,1,1,1.30307002226,84.4302372368,1,1,0.32093518175,5,6.5,32,bw,99.7809202841,2019_may_14_1049,016,256,20,5,iñaki,Experiment_EEG_version,20,
Living_Things,../experiment_stimuli/bw_bc_bl/Living_Things/Birds/raven_20.jpg,Birds,0,raven,0,18,18,67,86.4840025191,V_nV,1,86.5017802459,87.7967562974,1,1,0.621567662107,88.4388827668,3,0,0.280830673408,5,6.0,32,bw,99.7809202841,2019_may_14_1049,016,256,20,5,iñaki,Experiment_EEG_version,20,
Nonliving_Things,../experiment_stimuli/bw_bc_bl/Nonliving_Things/Buildings/granary_21.jpg,Buildings,0,granary,0,19,19,35,90.4526396561,nV_V,1,90.4818747225,91.7553646307,1,1,1.45338909508,93.239333374,3,0,0.230721342319,5,6.5,32,bw,99.7809202841,2019_may_14_1049,016,256,20,5,iñaki,Experiment_EEG_version,20,
Nonliving_Things,../experiment_stimuli/bw_bc_bl/Nonliving_Things/Kitchen_Uten/pot_1.jpg,Kitchen_Uten,0,pot,0,20,20,66,95.2029738196,nV_V,1,95.2199004157,96.4756252323,1,1,0.912208785419,97.4083779978,2,0,0.721794275742,5,7.0,32,bw,99.7809202841,2019_may_14_1049,016,256,20,5,iñaki,Experiment_EEG_version,20,
Living_Things,../experiment_stimuli/bw_bc_bl/Living_Things/Insects/ladybird_24.jpg,Insects,0,ladybird,0,21,21,45,99.8630920531,V_nV,1,99.8870861233,101.135752259,0,2,1.07240138593,102.228714057,1,1,0.822023813846,5,6.0,32,bw,99.7809202841,2019_may_14_1049,016,256,20,5,iñaki,Experiment_EEG_version,20,
Nonliving_Things,../experiment_stimuli/bw_bc_bl/Nonliving_Things/Vehicles/bus_21.jpg,Vehicles,0,bus,0,22,22,9,104.783785371,V_nV,2,104.802280392,106.066467636,1,2,0.992402535572,107.079436174,3,0,0.220697959594,5,6.5,32,bw,99.7809202841,2019_may_14_1049,016,256,20,5,iñaki,Experiment_EEG_version,20,
Living_Things,../experiment_stimuli/bw_bc_bl/Living_Things/Birds/owl_14.jpg,Birds,0,owl,0,23,23,57,109.033018692,nV_V,2,109.047141723,110.295665883,1,2,1.2228840579,111.539143019,1,1,0.260783238686,5,6.0,32,bw,99.7809202841,2019_may_14_1049,016,256,20,5,iñaki,Experiment_EEG_version,20,
Living_Things,../experiment_stimuli/bw_bc_bl/Living_Things/Birds/sparrow_17.jpg,Birds,0,sparrow,0,24,24,79,113.532800786,nV_V,2,113.547438851,114.815489818,1,2,1.85428378574,116.690344933,1,1,0.20067175763,5,6.0,32,bw,99.7809202841,2019_may_14_1049,016,256,20,5,iñaki,Experiment_EEG_version,20,
Nonliving_Things,../experiment_stimuli/bw_bc_bl/Nonliving_Things/Vehicles/van_14.jpg,Vehicles,0,van,0,25,25,91,118.623875201,V_nV,2,118.633472876,119.916578714,1,2,0.771880956599,120.709031658,3,0,0.240767653158,5,6.0,32,bw,99.7809202841,2019_may_14_1049,016,256,20,5,iñaki,Experiment_EEG_version,20,
Living_Things,../experiment_stimuli/bw_bc_bl/Living_Things/Marine_creatures/pomfret_17.jpg,Marine_creatures,0,pomfret,0,26,26,65,122.682691242,V_nV,1,122.699067564,123.965384139,1,1,0.731808974117,124.727773784,1,1,0.320937072916,5,6.0,32,bw,99.7809202841,2019_may_14_1049,016,256,20,5,iñaki,Experiment_EEG_version,20,
Living_Things,../experiment_stimuli/bw_bc_bl/Living_Things/Animals/horse_17.jpg,Animals,0,horse,0,27,27,40,126.781600216,V_nV,1,126.79076478,128.074318526,1,1,0.631617886655,128.726513358,3,0,0.240773318685,5,7.0,32,bw,99.7809202841,2019_may_14_1049,016,256,20,5,iñaki,Experiment_EEG_version,20,
Living_Things,../experiment_stimuli/bw_bc_bl/Living_Things/Marine_creatures/lobster_24.jpg,Marine_creatures,0,lobster,0,28,28,49,130.700133758,V_nV,1,130.718718564,131.972782472,1,1,2.33530039311,134.328644635,1,1,0.300878172216,5,7.0,32,bw,99.7809202841,2019_may_14_1049,016,256,20,5,iñaki,Experiment_EEG_version,20,
Living_Things,../experiment_stimuli/bw_bc_bl/Living_Things/Marine_creatures/killer-whale_17.jpg,Marine_creatures,0,killer-whale,0,29,29,43,136.362430181,nV_V,2,136.367750856,137.645115852,1,2,2.36537480488,140.031049949,1,1,0.300878886424,5,6.5,32,bw,99.7809202841,2019_may_14_1049,016,256,20,5,iñaki,Experiment_EEG_version,20,
Living_Things,../experiment_stimuli/bw_bc_bl/Living_Things/Birds/penguin_13.jpg,Birds,0,penguin,0,30,30,61,142.064832638,nV_V,2,142.082011636,143.387618505,1,2,0.892162591335,144.300317318,3,0,0.571474045166,5,6.0,32,bw,99.7809202841,2019_may_14_1049,016,256,20,5,iñaki,Experiment_EEG_version,20,
Living_Things,../experiment_stimuli/bw_bc_bl/Living_Things/Birds/magpie_0.jpg,Birds,0,magpie,0,31,31,51,146.604695665,V_nV,1,146.619675932,147.907421974,0,2,0.892163008393,148.820136286,1,1,0.240761803987,5,6.0,32,bw,99.7809202841,2019_may_14_1049,016,256,20,5,iñaki,Experiment_EEG_version,20,
Nonliving_Things,../experiment_stimuli/bw_bc_bl/Nonliving_Things/Musical_Inst/violin_8.jpg,Musical_Inst,0,violin,0,32,32,92,150.793801565,nV_V,1,150.812418419,152.126594455,1,1,0.892165354569,153.039327639,3,0,0.210674855043,5,8.0,32,bw,99.7809202841,2019_may_14_1049,016,256,20,5,iñaki,Experiment_EEG_version,20,
Living_Things,../experiment_stimuli/bw_bc_bl/Living_Things/Animals/lynx_17.jpg,Animals,0,lynx,0,33,33,50,154.982909297,V_nV,1,155.005255781,156.285642775,1,1,0.621577045415,156.927799668,3,0,0.320936648292,5,6.5,32,bw,99.7809202841,2019_may_14_1049,016,256,20,5,iñaki,Experiment_EEG_version,20,
Living_Things,../experiment_stimuli/bw_bc_bl/Living_Things/Birds/goldfinch_13.jpg,Birds,0,goldfinch,0,34,34,33,158.981599416,nV_V,2,159.023189175,160.274309689,1,2,1.49348369375,161.788333329,1,1,0.320918073179,5,6.0,32,bw,99.7809202841,2019_may_14_1049,016,256,20,5,iñaki,Experiment_EEG_version,20,
Living_Things,../experiment_stimuli/bw_bc_bl/Living_Things/Marine_creatures/narwhal_12.jpg,Marine_creatures,0,narwhal,0,35,35,55,163.842163471,nV_V,2,163.854025869,165.114825045,1,2,0.741837041394,165.87720942,3,0,0.230745203036,5,6.0,32,bw,99.7809202841,2019_may_14_1049,016,256,20,5,iñaki,Experiment_EEG_version,20,
Living_Things,../experiment_stimuli/bw_bc_bl/Living_Things/Animals/tapir_8.jpg,Animals,0,tapir,0,36,36,82,167.840851719,V_nV,1,167.862222691,169.103499316,1,1,0.741856048582,169.865913401,1,1,0.340811104048,5,7.0,32,bw,99.7809202841,2019_may_14_1049,016,256,20,5,iñaki,Experiment_EEG_version,20,
Living_Things,../experiment_stimuli/bw_bc_bl/Living_Things/Animals/rhino_25.jpg,Animals,0,rhino,0,37,37,68,171.939764746,V_nV,1,171.955000528,173.232473217,1,1,0.651858378667,173.904904136,2,0,0.250762299518,5,6.5,32,bw,99.7809202841,2019_may_14_1049,016,256,20,5,iñaki,Experiment_EEG_version,20,
Living_Things,../experiment_stimuli/bw_bc_bl/Living_Things/Marine_creatures/dolphin_3.jpg,Marine_creatures,0,dolphin,0,38,38,23,175.88835332,nV_V,2,175.904822746,177.171036435,1,2,1.29305185744,178.484633355,1,1,0.561440286576,5,6.0,32,bw,99.7809202841,2019_may_14_1049,016,256,20,5,iñaki,Experiment_EEG_version,20,
Living_Things,../experiment_stimuli/bw_bc_bl/Living_Things/Birds/rooster_15.jpg,Birds,0,rooster,0,39,39,70,180.778982937,nV_V,2,180.792416775,182.071689844,1,2,0.651656930451,182.75439051,1,1,0.340961790062,5,7.0,32,bw,99.7809202841,2019_may_14_1049,016,256,20,5,iñaki,Experiment_EEG_version,20,
Living_Things,../experiment_stimuli/bw_bc_bl/Living_Things/Birds/pelican_10.jpg,Birds,0,pelican,0,40,40,60,184.827783508,nV_V,2,184.840861294,186.130523001,1,2,0.631597973523,186.782642917,3,0,0.250764457742,5,6.0,32,bw,99.7809202841,2019_may_14_1049,016,256,20,5,iñaki,Experiment_EEG_version,20,
Living_Things,../experiment_stimuli/bw_bc_bl/Living_Things/Animals/cat_5.jpg,Animals,0,cat,0,41,41,13,188.766345361,V_nV,1,188.78370397,190.049029841,1,1,1.76407959283,191.833690034,1,1,0.29085486097,5,7.5,32,bw,99.7809202841,2019_may_14_1049,016,256,20,5,iñaki,Experiment_EEG_version,20,
Living_Things,../experiment_stimuli/bw_bc_bl/Living_Things/Marine_creatures/whale_4.jpg,Marine_creatures,0,whale,0,42,42,94,193.857406897,V_nV,1,193.875579475,195.150121432,1,1,0.521362352825,195.692029972,3,0,0.260791434092,5,6.5,32,bw,99.7809202841,2019_may_14_1049,016,256,20,5,iñaki,Experiment_EEG_version,20,
Living_Things,../experiment_stimuli/bw_bc_bl/Living_Things/Animals/hippopotamus_15.jpg,Animals,0,hippopotamus,0,43,43,39,197.685730344,nV_V,2,197.697413289,198.948384404,1,2,0.862119378522,199.831053571,3,0,0.230719511339,5,6.0,32,bw,99.7809202841,2019_may_14_1049,016,256,20,5,iñaki,Experiment_EEG_version,20,
Nonliving_Things,../experiment_stimuli/bw_bc_bl/Nonliving_Things/Kitchen_Uten/fondue_9.jpg,Kitchen_Uten,0,fondue,0,44,44,30,201.79466208,V_nV,2,201.807134857,203.037270277,1,2,1.61373393005,204.671535977,1,1,0.280857191829,5,6.0,32,bw,99.7809202841,2019_may_14_1049,016,256,20,5,iñaki,Experiment_EEG_version,20,
Living_Things,../experiment_stimuli/bw_bc_bl/Living_Things/Birds/kiwi_5.jpg,Birds,0,kiwi,0,45,45,44,206.68529278,nV_V,2,206.703217892,207.967982786,1,2,0.892168012273,208.880738552,2,0,0.260787817941,5,6.0,32,bw,99.7809202841,2019_may_14_1049,016,256,20,5,iñaki,Experiment_EEG_version,20,
Nonliving_Things,../experiment_stimuli/bw_bc_bl/Nonliving_Things/Kitchen_Uten/coking-pot_0.jpg,Kitchen_Uten,0,coking-pot,0,46,46,18,210.87440453,V_nV,2,210.888809282,212.147067134,1,2,1.08258131536,213.250200512,3,0,0.250753525237,5,7.0,32,bw,99.7809202841,2019_may_14_1049,016,256,20,5,iñaki,Experiment_EEG_version,20,
Nonliving_Things,../experiment_stimuli/bw_bc_bl/Nonliving_Things/Buildings/house_22.jpg,Buildings,0,house,0,47,47,41,215.233877637,nV_V,1,215.250903761,216.486502607,1,1,0.852090364613,217.359134271,1,1,0.761875577504,5,6.0,32,bw,99.7809202841,2019_may_14_1049,016,256,20,5,iñaki,Experiment_EEG_version,20,
Nonliving_Things,../experiment_stimuli/bw_bc_bl/Nonliving_Things/Kitchen_Uten/cup_11.jpg,Kitchen_Uten,0,cup,0,48,48,22,219.85391961,V_nV,2,219.876647815,221.116561989,1,2,0.751869987871,221.888996464,2,0,0.240738104738,5,6.0,32,bw,99.7809202841,2019_may_14_1049,016,256,20,5,iñaki,Experiment_EEG_version,20,
Nonliving_Things,../experiment_stimuli/bw_bc_bl/Nonliving_Things/Vehicles/plane_20.jpg,Vehicles,0,plane,0,49,49,64,223.862656187,nV_V,1,223.872916973,225.105236851,1,1,0.811995645578,225.93778545,1,1,0.401092086744,5,6.0,32,bw,99.7809202841,2019_may_14_1049,016,256,20,5,iñaki,Experiment_EEG_version,20,
Nonliving_Things,../experiment_stimuli/bw_bc_bl/Nonliving_Things/Vehicles/motorbike_11.jpg,Vehicles,0,motorbike,0,50,50,54,228.071776786,nV_V,1,228.090356622,229.334444511,1,1,1.44336606562,230.798341685,3,0,0.310895329458,5,8.0,32,bw,99.7809202841,2019_may_14_1049,016,256,20,5,iñaki,Experiment_EEG_version,20,
Living_Things,../experiment_stimuli/bw_bc_bl/Living_Things/Animals/elephant_2.jpg,Animals,0,elephant,0,51,51,27,232.842157016,V_nV,1,232.851719849,234.074731691,0,2,0.952306395222,235.04760322,1,1,0.340966850054,5,6.5,32,bw,99.7809202841,2019_may_14_1049,016,256,20,5,iñaki,Experiment_EEG_version,20,
Nonliving_Things,../experiment_stimuli/bw_bc_bl/Nonliving_Things/Kitchen_Uten/teapot_25.jpg,Kitchen_Uten,0,teapot,0,52,52,83,237.12145688,nV_V,1,237.147024383,238.404144352,1,1,1.13268855267,239.55738884,1,1,0.310906614992,5,6.0,32,bw,99.7809202841,2019_may_14_1049,016,256,20,5,iñaki,Experiment_EEG_version,20,
Nonliving_Things,../experiment_stimuli/bw_bc_bl/Nonliving_Things/Furniture/Chest-of-drawers_23.jpg,Furniture,0,Chest-of-drawers,0,53,53,0,241.601217058,V_nV,2,241.618326125,242.883886,1,2,1.34315054596,244.24759653,3,0,0.280853409902,5,7.0,32,bw,99.7809202841,2019_may_14_1049,016,256,20,5,iñaki,Experiment_EEG_version,20,
Living_Things,../experiment_stimuli/bw_bc_bl/Living_Things/Birds/toucan_0.jpg,Birds,0,toucan,0,54,54,85,246.261330901,V_nV,1,246.281057017,247.523970878,0,2,1.08258204471,248.627101865,1,1,0.401113368222,5,6.0,32,bw,99.7809202841,2019_may_14_1049,016,256,20,5,iñaki,Experiment_EEG_version,20,
Nonliving_Things,../experiment_stimuli/bw_bc_bl/Nonliving_Things/Kitchen_Uten/small-saucepan_11.jpg,Kitchen_Uten,0,small-saucepan,0,55,55,77,250.761106134,V_nV,2,250.773272264,252.033772659,1,2,1.46342656424,253.517796368,3,0,0.230723695713,5,6.5,32,bw,99.7809202841,2019_may_14_1049,016,256,20,5,iñaki,Experiment_EEG_version,20,
Nonliving_Things,../experiment_stimuli/bw_bc_bl/Nonliving_Things/Furniture/bookcase_22.jpg,Furniture,0,bookcase,0,56,56,8,255.481364991,nV_V,1,255.500852115,256.733987341,1,1,0.651642487035,257.406181462,1,1,0.280833737401,5,6.0,32,bw,99.7809202841,2019_may_14_1049,016,256,20,5,iñaki,Experiment_EEG_version,20,
Living_Things,../experiment_stimuli/bw_bc_bl/Living_Things/Marine_creatures/shark_2.jpg,Marine_creatures,0,shark,0,57,57,75,259.419927224,V_nV,1,259.456325113,260.712640184,0,2,1.1427029054,261.875946745,1,1,0.310896243143,5,6.0,32,bw,99.7809202841,2019_may_14_1049,016,256,20,5,iñaki,Experiment_EEG_version,20,
Nonliving_Things,../experiment_stimuli/bw_bc_bl/Nonliving_Things/Furniture/bedside-table_19.jpg,Furniture,0,bedside-table,0,58,58,6,263.919715528,nV_V,1,263.940257787,265.222452431,1,1,0.521379127051,265.764381734,3,0,0.180612334574,5,6.0,32,bw,99.7809202841,2019_may_14_1049,016,256,20,5,iñaki,Experiment_EEG_version,20,
Nonliving_Things,../experiment_stimuli/bw_bc_bl/Nonliving_Things/Furniture/rocking-chair_20.jpg,Furniture,0,rocking-chair,0,59,59,69,267.677880818,nV_V,1,267.697034657,268.960577982,1,1,0.611578207288,269.592699628,3,0,0.200670253951,5,6.5,32,bw,99.7809202841,2019_may_14_1049,016,256,20,5,iñaki,Experiment_EEG_version,20,
Nonliving_Things,../experiment_stimuli/bw_bc_bl/Nonliving_Things/Buildings/cathedral_23.jpg,Buildings,0,cathedral,0,60,60,14,271.526250463,V_nV,2,271.545944606,272.778872708,1,2,0.731835413724,273.531258531,1,1,0.932246156503,5,6.0,32,bw,99.7809202841,2019_may_14_1049,016,256,20,5,iñaki,Experiment_EEG_version,20,
Nonliving_Things,../experiment_stimuli/bw_bc_bl/Nonliving_Things/Furniture/filling-cabinet_15.jpg,Furniture,0,filling-cabinet,0,61,61,29,276.19639396,V_nV,2,276.208129284,277.479102322,1,2,0.69172685279,278.191363866,3,0,0.250767232152,5,8.0,32,bw,99.7809202841,2019_may_14_1049,016,256,20,5,iñaki,Experiment_EEG_version,20,
Nonliving_Things,../experiment_stimuli/bw_bc_bl/Nonliving_Things/Tools/axe_26.jpg,Tools,0,axe,0,62,62,3,280.175043776,nV_V,1,280.196540093,281.447712057,1,1,0.621576804842,282.089834872,1,1,0.641619277187,5,6.0,32,bw,99.7809202841,2019_may_14_1049,016,256,20,5,iñaki,Experiment_EEG_version,20,
Nonliving_Things,../experiment_stimuli/bw_bc_bl/Nonliving_Things/Vehicles/boat_11.jpg,Vehicles,0,boat,0,63,63,7,284.464382057,V_nV,2,284.50440207,285.767117377,1,2,0.852081187884,286.639730872,2,0,0.260783817619,5,6.5,32,bw,99.7809202841,2019_may_14_1049,016,256,20,5,iñaki,Experiment_EEG_version,20,
Living_Things,../experiment_stimuli/bw_bc_bl/Living_Things/Animals/tiger_3.jpg,Animals,0,tiger,0,64,64,84,288.633449226,V_nV,1,288.645090705,289.896082977,1,1,1.1627547876,291.079377016,2,0,0.260812448803,5,6.0,32,bw,99.7809202841,2019_may_14_1049,016,256,20,5,iñaki,Experiment_EEG_version,20,
Living_Things,../experiment_stimuli/bw_bc_bl/Living_Things/Animals/armadillo_24.jpg,Animals,0,armadillo,0,65,65,1,293.073080512,nV_V,2,293.092288094,294.335737252,1,2,0.681707278069,295.048005532,1,1,0.290853507642,5,6.5,32,bw,99.7809202841,2019_may_14_1049,016,256,20,5,iñaki,Experiment_EEG_version,20,
Living_Things,../experiment_stimuli/bw_bc_bl/Living_Things/Insects/dragonfly_8.jpg,Insects,0,dragonfly,0,66,66,24,297.071779139,nV_V,2,297.087575089,298.354467017,1,2,0.982386250456,299.357407495,2,0,0.280825132504,5,6.0,32,bw,99.7809202841,2019_may_14_1049,016,256,20,5,iñaki,Experiment_EEG_version,20,
Nonliving_Things,../experiment_stimuli/bw_bc_bl/Nonliving_Things/Musical_Inst/guitar_13.jpg,Musical_Inst,0,guitar,0,67,67,36,301.371126028,V_nV,2,301.389339474,302.653811012,1,2,0.671692944248,303.34606215,3,0,0.26080809586,5,6.0,32,bw,99.7809202841,2019_may_14_1049,016,256,20,5,iñaki,Experiment_EEG_version,20,
Nonliving_Things,../experiment_stimuli/bw_bc_bl/Nonliving_Things/Furniture/sofa_1.jpg,Furniture,0,sofa,0,68,68,78,305.339745789,V_nV,2,305.360477094,306.582354399,0,1,0.631614160899,307.234524841,1,1,0.260789084656,5,7.0,32,bw,99.7809202841,2019_may_14_1049,016,256,20,5,iñaki,Experiment_EEG_version,20,
Nonliving_Things,../experiment_stimuli/bw_bc_bl/Nonliving_Things/Buildings/mill_20.jpg,Buildings,0,mill,0,69,69,53,309.228200917,V_nV,2,309.249047284,310.510892118,1,2,0.471245642053,311.002673672,1,1,0.270816301985,5,6.0,32,bw,99.7809202841,2019_may_14_1049,016,256,20,5,iñaki,Experiment_EEG_version,20,
Nonliving_Things,../experiment_stimuli/bw_bc_bl/Nonliving_Things/Buildings/palace_23.jpg,Buildings,0,palace,0,70,70,58,313.006436032,V_nV,2,313.037462043,314.319177149,1,2,0.992386313796,315.332142642,2,0,0.260785735212,5,7.0,32,bw,99.7809202841,2019_may_14_1049,016,256,20,5,iñaki,Experiment_EEG_version,20,
Living_Things,../experiment_stimuli/bw_bc_bl/Living_Things/Marine_creatures/manatee_0.jpg,Marine_creatures,0,manatee,0,71,71,52,317.325802401,V_nV,1,317.342590654,318.628534158,1,1,0.801972067333,319.451054826,3,0,0.32093235862,5,6.5,32,bw,99.7809202841,2019_may_14_1049,016,256,20,5,iñaki,Experiment_EEG_version,20,
Living_Things,../experiment_stimuli/bw_bc_bl/Living_Things/Birds/partridge_6.jpg,Birds,0,partridge,0,72,72,59,321.504890246,nV_V,2,321.510106803,322.767539945,1,2,0.711774663476,323.499885257,2,0,0.371040825034,5,6.0,32,bw,99.7809202841,2019_may_14_1049,016,256,20,5,iñaki,Experiment_EEG_version,20,
Nonliving_Things,../experiment_stimuli/bw_bc_bl/Nonliving_Things/Buildings/church_22.jpg,Buildings,0,church,0,73,73,17,325.603800637,nV_V,1,325.621424509,326.866458095,1,1,0.811994115415,327.698998018,1,1,0.260780904326,5,7.0,32,bw,99.7809202841,2019_may_14_1049,016,256,20,5,iñaki,Experiment_EEG_version,20,
Living_Things,../experiment_stimuli/bw_bc_bl/Living_Things/Animals/zebra_20.jpg,Animals,0,zebra,0,74,74,95,329.692688428,V_nV,1,329.712299196,330.985399023,1,1,0.57146540581,331.577420327,3,0,0.310892404697,5,7.5,32,bw,99.7809202841,2019_may_14_1049,016,256,20,5,iñaki,Experiment_EEG_version,20,
Nonliving_Things,../experiment_stimuli/bw_bc_bl/Nonliving_Things/Buildings/factory_2.jpg,Buildings,0,factory,0,75,75,28,333.621225771,V_nV,2,333.639387496,334.873920146,0,1,0.912215973309,335.806623003,1,1,0.270659247995,5,6.0,32,bw,99.7809202841,2019_may_14_1049,016,256,20,5,iñaki,Experiment_EEG_version,20,
Nonliving_Things,../experiment_stimuli/bw_bc_bl/Nonliving_Things/Furniture/lamp_19.jpg,Furniture,0,lamp,0,76,76,46,337.810328814,V_nV,2,337.826046897,339.09302726,1,2,1.18279786862,340.296366308,3,0,0.320920129656,5,6.0,32,bw,99.7809202841,2019_may_14_1049,016,256,20,5,iñaki,Experiment_EEG_version,20,
Nonliving_Things,../experiment_stimuli/bw_bc_bl/Nonliving_Things/Furniture/wardrobe_6.jpg,Furniture,0,wardrobe,0,77,77,93,342.350207638,V_nV,2,342.369796091,343.602825744,1,2,0.59151815658,344.214892549,2,0,0.290873882943,5,6.0,32,bw,99.7809202841,2019_may_14_1049,016,256,20,5,iñaki,Experiment_EEG_version,20,
Nonliving_Things,../experiment_stimuli/bw_bc_bl/Nonliving_Things/Musical_Inst/saxophone_14.jpg,Musical_Inst,0,saxophone,0,78,78,72,346.238669017,V_nV,2,346.259352984,347.491279085,1,2,0.982364581258,348.494197444,1,1,0.340958500397,5,7.5,32,bw,99.7809202841,2019_may_14_1049,016,256,20,5,iñaki,Experiment_EEG_version,20,
Nonliving_Things,../experiment_stimuli/bw_bc_bl/Nonliving_Things/Furniture/armchair_10.jpg,Furniture,0,armchair,0,79,79,2,350.568072728,V_nV,2,350.586183025,351.840737114,1,2,0.601537080365,352.462822182,2,0,0.270643702883,5,8.0,32,bw,99.7809202841,2019_may_14_1049,016,256,20,5,iñaki,Experiment_EEG_version,20,
Living_Things,../experiment_stimuli/bw_bc_bl/Living_Things/Animals/cow_3.jpg,Animals,0,cow,0,80,80,20,354.466545065,nV_V,2,354.484752458,355.729187925,0,1,0.822018234932,356.571747032,1,1,0.250761096831,5,6.0,32,bw,99.7809202841,2019_may_14_1049,016,256,20,5,iñaki,Experiment_EEG_version,20,
Nonliving_Things,../experiment_stimuli/bw_bc_bl/Nonliving_Things/Musical_Inst/tuba_19.jpg,Musical_Inst,0,tuba,0,81,81,89,358.555428998,nV_V,1,358.575651844,359.828106523,1,1,0.80196687195,360.650604127,3,0,0.2207162751,5,6.0,32,bw,99.7809202841,2019_may_14_1049,016,256,20,5,iñaki,Experiment_EEG_version,20,
Living_Things,../experiment_stimuli/bw_bc_bl/Living_Things/Birds/duck_15.jpg,Birds,0,duck,0,82,82,26,362.604230374,nV_V,2,362.625088316,363.846831522,0,1,0.581492503174,364.448883065,1,1,0.230719447602,5,6.0,32,bw,99.7809202841,2019_may_14_1049,016,256,20,5,iñaki,Experiment_EEG_version,20,
Nonliving_Things,../experiment_stimuli/bw_bc_bl/Nonliving_Things/Vehicles/train_3.jpg,Vehicles,0,train,0,83,83,87,366.412511988,V_nV,2,366.441003354,367.695206257,1,2,0.781917023705,368.497672415,1,1,0.350984409451,5,7.5,32,bw,99.7809202841,2019_may_14_1049,016,256,20,5,iñaki,Experiment_EEG_version,20,
Living_Things,../experiment_stimuli/bw_bc_bl/Living_Things/Animals/giraffe_17.jpg,Animals,0,giraffe,0,84,84,32,370.581579337,V_nV,1,370.60178542,371.864274617,1,1,1.45338621933,373.338196286,1,1,0.260801693483,5,6.0,32,bw,99.7809202841,2019_may_14_1049,016,256,20,5,iñaki,Experiment_EEG_version,20,
Living_Things,../experiment_stimuli/bw_bc_bl/Living_Things/Birds/hummingbird_16.jpg,Birds,0,hummingbird,0,85,85,42,375.331904516,V_nV,1,375.348592175,376.624610701,1,1,2.55580433295,379.201051367,1,1,0.541404562071,5,6.0,32,bw,99.7809202841,2019_may_14_1049,016,256,20,5,iñaki,Experiment_EEG_version,20,
Living_Things,../experiment_stimuli/bw_bc_bl/Living_Things/Marine_creatures/sperm-whale_23.jpg,Marine_creatures,0,sperm-whale,0,86,86,80,381.475264688,V_nV,1,381.507515857,382.798042506,1,1,1.97452599643,384.793116953,3,0,0.290872353071,5,6.0,32,bw,99.7809202841,2019_may_14_1049,016,256,20,5,iñaki,Experiment_EEG_version,20,
Nonliving_Things,../experiment_stimuli/bw_bc_bl/Nonliving_Things/Buildings/castle_8.jpg,Buildings,0,castle,0,87,87,12,386.81686486,nV_V,1,386.835174884,388.099557675,0,2,0.812011701579,388.932122356,1,1,0.330939136213,5,6.5,32,bw,99.7809202841,2019_may_14_1049,016,256,20,5,iñaki,Experiment_EEG_version,20,
Nonliving_Things,../experiment_stimuli/bw_bc_bl/Nonliving_Things/Vehicles/ship_15.jpg,Vehicles,0,ship,0,88,88,76,390.995948085,V_nV,2,391.016165307,392.308706758,1,2,0.701752363413,393.031017346,1,1,0.340992277954,5,6.5,32,bw,99.7809202841,2019_may_14_1049,016,256,20,5,iñaki,Experiment_EEG_version,20,
Living_Things,../experiment_stimuli/bw_bc_bl/Living_Things/Animals/turtle_8.jpg,Animals,0,turtle,0,89,89,90,395.104885739,nV_V,2,395.123054099,396.427658381,0,1,1.02229438926,397.470533855,1,1,0.240745777672,5,7.5,32,bw,99.7809202841,2019_may_14_1049,016,256,20,5,iñaki,Experiment_EEG_version,20,
Nonliving_Things,../experiment_stimuli/bw_bc_bl/Nonliving_Things/Furniture/lectern_23.jpg,Furniture,0,lectern,0,90,90,47,399.444313618,nV_V,1,399.462168212,400.787141266,1,1,0.721792726545,401.529490191,3,0,0.200656821602,5,6.0,32,bw,99.7809202841,2019_may_14_1049,016,256,20,5,iñaki,Experiment_EEG_version,20,
Living_Things,../experiment_stimuli/bw_bc_bl/Living_Things/Birds/seagull_19.jpg,Birds,0,seagull,0,91,91,74,403.463052154,V_nV,1,403.482100524,404.785835476,1,1,0.721796083846,405.528184352,3,0,0.200653235195,5,7.5,32,bw,99.7809202841,2019_may_14_1049,016,256,20,5,iñaki,Experiment_EEG_version,20,
Nonliving_Things,../experiment_stimuli/bw_bc_bl/Nonliving_Things/Furniture/bed_13.jpg,Furniture,0,bed,0,92,92,5,407.47178837,nV_V,1,407.487394782,408.764484003,1,1,0.661668381072,409.44670226,1,1,0.230732601776,5,6.0,32,bw,99.7809202841,2019_may_14_1049,016,256,20,5,iñaki,Experiment_EEG_version,20,
Living_Things,../experiment_stimuli/bw_bc_bl/Living_Things/Animals/lioness_17.jpg,Animals,0,lioness,0,93,93,48,411.420354772,V_nV,1,411.435410199,412.74312467,1,1,1.39324398647,414.166954008,1,1,0.220544442942,5,6.0,32,bw,99.7809202841,2019_may_14_1049,016,256,20,5,iñaki,Experiment_EEG_version,20,
Nonliving_Things,../experiment_stimuli/bw_bc_bl/Nonliving_Things/Furniture/chair_18.jpg,Furniture,0,chair,0,94,94,15,416.120563435,nV_V,1,416.139520856,417.463391448,1,1,0.73182283499,418.21578953,3,0,0.200650179002,5,6.0,32,bw,99.7809202841,2019_may_14_1049,016,256,20,5,iñaki,Experiment_EEG_version,20,
Living_Things,../experiment_stimuli/bw_bc_bl/Living_Things/Birds/pigeon_11.jpg,Birds,0,pigeon,0,95,95,63,420.159354466,nV_V,2,420.179629522,421.48212515,1,2,0.571488642483,422.074164498,3,0,0.180636638601,5,6.0,32,bw,99.7809202841,2019_may_14_1049,016,256,20,5,iñaki,Experiment_EEG_version,20,
