category,probe_path,subcategory,fixation_duration,label,trials.thisRepN,trials.thisTrialN,trials.thisN,trials.thisIndex,image_onset_time,response_window,correctAns,probe_onset,discrim_resptime,response.corr,response.keys,response.rt,visible_resptime,visible.keys,visible.corr,visible.rt,probeFrames,jitter2,n_square,experiment_color,frameRate,date,session,image_size,premask_dur,probeFrames,participant,expName,postmask_dur,
Nonliving_Things,../experiment_stimuli/bw_bc_bl/Nonliving_Things/Musical_Inst/guitar_17.jpg,Musical_Inst,0,guitar,0,0,0,36,3.72712026106,nV_V,1,3.76158762106,5.02985073935,1,1,0.811997355951,5.87268199201,3,0,0.240737875574,5,7.0,32,bw,99.7805010546,2019_may_14_1108,018,256,20,5,iñaki,Experiment_EEG_version,20,
Nonliving_Things,../experiment_stimuli/bw_bc_bl/Nonliving_Things/Vehicles/van_19.jpg,Vehicles,0,van,0,1,1,91,7.84606751212,nV_V,1,7.86859093787,9.10872991005,1,1,0.801966664963,9.93123284879,1,1,0.210677727126,5,6.5,32,bw,99.7805010546,2019_may_14_1108,018,256,20,5,iñaki,Experiment_EEG_version,20,
Nonliving_Things,../experiment_stimuli/bw_bc_bl/Nonliving_Things/Furniture/Chest-of-drawers_7.jpg,Furniture,0,Chest-of-drawers,0,2,2,0,11.8748298331,nV_V,1,11.8941430377,13.1575261622,1,1,0.491293576488,13.6693650123,1,1,0.200502936903,5,6.0,32,bw,99.7805010546,2019_may_14_1108,018,256,20,5,iñaki,Experiment_EEG_version,20,
Nonliving_Things,../experiment_stimuli/bw_bc_bl/Nonliving_Things/Furniture/chair_0.jpg,Furniture,0,chair,0,3,3,15,15.6029282116,V_nV,2,15.6133988962,16.8956422583,1,2,0.651671839994,17.5678571084,3,0,0.210678599309,5,6.0,32,bw,99.7805010546,2019_may_14_1108,018,256,20,5,iñaki,Experiment_EEG_version,20,
Living_Things,../experiment_stimuli/bw_bc_bl/Living_Things/Insects/ladybird_16.jpg,Insects,0,ladybird,0,4,4,45,19.5114578821,V_nV,1,19.5346970345,20.7941137871,0,2,0.721798820654,21.5364797944,1,1,0.250781389826,5,6.5,32,bw,99.7805010546,2019_may_14_1108,018,256,20,5,iñaki,Experiment_EEG_version,20,
Living_Things,../experiment_stimuli/bw_bc_bl/Living_Things/Birds/kiwi_6.jpg,Birds,0,kiwi,0,5,5,44,23.5201398476,V_nV,1,23.5374606146,24.8328909983,1,1,2.48562724417,27.3390634219,1,1,0.210700820608,5,8.0,32,bw,99.7805010546,2019_may_14_1108,018,256,20,5,iñaki,Experiment_EEG_version,20,
Nonliving_Things,../experiment_stimuli/bw_bc_bl/Nonliving_Things/Kitchen_Uten/frying-pan_10.jpg,Kitchen_Uten,0,frying-pan,0,6,6,31,29.2826628383,nV_V,1,29.3013252102,30.6154586494,1,1,1.18279565097,31.8187921526,2,0,0.230733424833,5,6.0,32,bw,99.7805010546,2019_may_14_1108,018,256,20,5,iñaki,Experiment_EEG_version,20,
Nonliving_Things,../experiment_stimuli/bw_bc_bl/Nonliving_Things/Tools/axe_6.jpg,Tools,0,axe,0,7,7,3,33.7824469098,nV_V,1,33.8025605126,35.1052183492,1,1,0.992384546902,36.1181544063,1,1,0.230740627798,5,6.0,32,bw,99.7805010546,2019_may_14_1108,018,256,20,5,iñaki,Experiment_EEG_version,20,
Living_Things,../experiment_stimuli/bw_bc_bl/Living_Things/Animals/rhino_19.jpg,Animals,0,rhino,0,8,8,68,38.0817855659,V_nV,1,38.0928677269,39.4145840912,1,1,0.68170765799,40.1168457631,3,0,0.230716819642,5,7.5,32,bw,99.7805010546,2019_may_14_1108,018,256,20,5,iñaki,Experiment_EEG_version,20,
Nonliving_Things,../experiment_stimuli/bw_bc_bl/Nonliving_Things/Furniture/armchair_20.jpg,Furniture,0,armchair,0,9,9,2,42.0804729191,nV_V,1,42.1002555191,43.4032562717,1,1,1.24296509358,44.6667933904,3,0,0.210704065103,5,6.0,32,bw,99.7805010546,2019_may_14_1108,018,256,20,5,iñaki,Experiment_EEG_version,20,
Nonliving_Things,../experiment_stimuli/bw_bc_bl/Nonliving_Things/Furniture/table_20.jpg,Furniture,0,table,0,10,10,81,46.6103306612,V_nV,2,46.6319301564,47.9030327002,1,2,1.0825818943,49.0061723226,3,0,0.220698068384,5,6.0,32,bw,99.7805010546,2019_may_14_1108,018,256,20,5,iñaki,Experiment_EEG_version,20,
Nonliving_Things,../experiment_stimuli/bw_bc_bl/Nonliving_Things/Furniture/lamp_9.jpg,Furniture,0,lamp,0,11,11,46,50.95977513,nV_V,1,50.9805807493,52.2324430087,1,1,1.13268339081,53.3856745678,1,1,0.24061638501,5,6.5,32,bw,99.7805010546,2019_may_14_1108,018,256,20,5,iñaki,Experiment_EEG_version,20,
Living_Things,../experiment_stimuli/bw_bc_bl/Living_Things/Animals/lioness_19.jpg,Animals,0,lioness,0,12,12,48,55.3593406213,V_nV,1,55.3799364768,56.6620719907,0,2,0.711838504649,57.3944712385,1,1,0.230725146772,5,7.0,32,bw,99.7805010546,2019_may_14_1108,018,256,20,5,iñaki,Experiment_EEG_version,20,
Living_Things,../experiment_stimuli/bw_bc_bl/Living_Things/Birds/magpie_19.jpg,Birds,0,magpie,0,13,13,51,59.3580280873,nV_V,2,59.3751574697,60.6908269806,0,1,0.581506795832,61.2929255457,1,1,0.230734289507,5,6.0,32,bw,99.7805010546,2019_may_14_1108,018,256,20,5,iñaki,Experiment_EEG_version,20,
Nonliving_Things,../experiment_stimuli/bw_bc_bl/Nonliving_Things/Kitchen_Uten/small-saucepan_13.jpg,Kitchen_Uten,0,small-saucepan,0,14,14,77,63.2565052212,nV_V,1,63.2623991107,64.6093465872,1,1,0.721817271493,65.3517234214,3,0,0.210681900033,5,6.5,32,bw,99.7805010546,2019_may_14_1108,018,256,20,5,iñaki,Experiment_EEG_version,20,
Living_Things,../experiment_stimuli/bw_bc_bl/Living_Things/Birds/hen_9.jpg,Birds,0,hen,0,15,15,38,67.2953098155,nV_V,2,67.3163353454,68.6381080547,1,2,0.691728206177,69.3503853686,2,0,0.220550021855,5,6.5,32,bw,99.7805010546,2019_may_14_1108,018,256,20,5,iñaki,Experiment_EEG_version,20,
Nonliving_Things,../experiment_stimuli/bw_bc_bl/Nonliving_Things/Buildings/palace_1.jpg,Buildings,0,palace,0,16,16,58,71.3039945404,nV_V,1,71.3284791822,72.6468154333,1,1,0.791953624343,73.4593260412,2,0,0.250760773197,5,6.0,32,bw,99.7805010546,2019_may_14_1108,018,256,20,5,iñaki,Experiment_EEG_version,20,
Nonliving_Things,../experiment_stimuli/bw_bc_bl/Nonliving_Things/Vehicles/ship_18.jpg,Vehicles,0,ship,0,17,17,76,75.4429935794,V_nV,2,75.4622335559,76.7657757103,1,2,0.671678842802,77.4580055824,1,1,0.190613841522,5,6.5,32,bw,99.7805010546,2019_may_14_1108,018,256,20,5,iñaki,Experiment_EEG_version,20,
Living_Things,../experiment_stimuli/bw_bc_bl/Living_Things/Animals/horse_24.jpg,Animals,0,horse,0,18,18,40,79.3815515868,nV_V,2,79.4040193101,80.7143538489,1,2,1.04250892682,81.7774260261,3,0,0.230717447703,5,6.0,32,bw,99.7805010546,2019_may_14_1108,018,256,20,5,iñaki,Experiment_EEG_version,20,
Living_Things,../experiment_stimuli/bw_bc_bl/Living_Things/Animals/zebra_6.jpg,Animals,0,zebra,0,19,19,95,83.741031363,V_nV,1,83.7619035528,85.0537847467,1,1,0.681705864612,85.7560388698,3,0,0.260791005858,5,6.0,32,bw,99.7805010546,2019_may_14_1108,018,256,20,5,iñaki,Experiment_EEG_version,20,
Living_Things,../experiment_stimuli/bw_bc_bl/Living_Things/Animals/giraffe_10.jpg,Animals,0,giraffe,0,20,20,32,87.749768061,V_nV,1,87.7634204971,89.0424537694,1,1,0.72179418162,89.784805446,3,0,0.220699948433,5,6.0,32,bw,99.7805010546,2019_may_14_1108,018,256,20,5,iñaki,Experiment_EEG_version,20,
Living_Things,../experiment_stimuli/bw_bc_bl/Living_Things/Animals/cheetah_9.jpg,Animals,0,cheetah,0,21,21,16,91.7384212718,nV_V,2,91.7561398526,93.0010716324,1,2,0.751876273542,93.7735166263,1,1,0.210705925769,5,6.5,32,bw,99.7805010546,2019_may_14_1108,018,256,20,5,iñaki,Experiment_EEG_version,20,
Nonliving_Things,../experiment_stimuli/bw_bc_bl/Nonliving_Things/Vehicles/bus_4.jpg,Vehicles,0,bus,0,22,22,9,95.7170631452,nV_V,1,95.7385246459,96.9997548689,1,1,0.531373968872,97.5516705249,1,1,0.250777791953,5,7.5,32,bw,99.7805010546,2019_may_14_1108,018,256,20,5,iñaki,Experiment_EEG_version,20,
Living_Things,../experiment_stimuli/bw_bc_bl/Living_Things/Marine_creatures/lobster_11.jpg,Marine_creatures,0,lobster,0,23,23,49,99.5353647846,nV_V,2,99.554913655,100.828075519,0,1,2.95665208879,103.805303674,1,1,0.180613759207,5,6.0,32,bw,99.7805010546,2019_may_14_1108,018,256,20,5,iñaki,Experiment_EEG_version,20,
Living_Things,../experiment_stimuli/bw_bc_bl/Living_Things/Marine_creatures/killer-whale_22.jpg,Marine_creatures,0,killer-whale,0,24,24,43,105.71880648,V_nV,1,105.724008781,107.021538654,1,1,1.20284381462,108.244953809,2,0,0.230716736987,5,7.0,32,bw,99.7805010546,2019_may_14_1108,018,256,20,5,iñaki,Experiment_EEG_version,20,
Living_Things,../experiment_stimuli/bw_bc_bl/Living_Things/Marine_creatures/pomfret_13.jpg,Marine_creatures,0,pomfret,0,25,25,65,110.208564578,nV_V,2,110.213771252,111.501280892,1,2,2.04470614169,113.566536784,1,1,0.170632293099,5,6.5,32,bw,99.7805010546,2019_may_14_1108,018,256,20,5,iñaki,Experiment_EEG_version,20,
Nonliving_Things,../experiment_stimuli/bw_bc_bl/Nonliving_Things/Vehicles/boat_23.jpg,Vehicles,0,boat,0,26,26,7,115.470000494,V_nV,2,115.489956035,116.792778147,1,2,1.13270641345,117.956061487,2,0,0.18060962786,5,6.0,32,bw,99.7805010546,2019_may_14_1108,018,256,20,5,iñaki,Experiment_EEG_version,20,
Nonliving_Things,../experiment_stimuli/bw_bc_bl/Nonliving_Things/Furniture/bed_9.jpg,Furniture,0,bed,0,27,27,5,119.869563496,V_nV,2,119.886328241,121.182319527,1,2,0.741859702684,121.944725525,3,0,0.140384816565,5,6.0,32,bw,99.7805010546,2019_may_14_1108,018,256,20,5,iñaki,Experiment_EEG_version,20,
Living_Things,../experiment_stimuli/bw_bc_bl/Living_Things/Birds/goose_20.jpg,Birds,0,goose,0,28,28,34,123.818146135,nV_V,2,123.840259153,125.100837329,1,2,0.791945090634,125.913351854,3,0,0.0401563160121,5,7.5,32,bw,99.7805010546,2019_may_14_1108,018,256,20,5,iñaki,Experiment_EEG_version,20,
Nonliving_Things,../experiment_stimuli/bw_bc_bl/Nonliving_Things/Vehicles/car_12.jpg,Vehicles,0,car,0,29,29,11,127.686572579,nV_V,1,127.707974085,128.939177181,1,1,0.781922132534,129.741666072,1,1,0.210696347,5,6.0,32,bw,99.7805010546,2019_may_14_1108,018,256,20,5,iñaki,Experiment_EEG_version,20,
Living_Things,../experiment_stimuli/bw_bc_bl/Living_Things/Birds/owl_20.jpg,Birds,0,owl,0,30,30,57,131.685243894,nV_V,2,131.701262218,132.957915969,1,2,1.10262438917,134.08107715,1,1,0.340959120542,5,6.5,32,bw,99.7805010546,2019_may_14_1108,018,256,20,5,iñaki,Experiment_EEG_version,20,
Living_Things,../experiment_stimuli/bw_bc_bl/Living_Things/Marine_creatures/narwhal_13.jpg,Marine_creatures,0,narwhal,0,31,31,55,136.154960784,nV_V,2,136.180036703,137.447677056,1,2,0.551432324632,138.019650417,2,0,0.22069813998,5,7.0,32,bw,99.7805010546,2019_may_14_1108,018,256,20,5,iñaki,Experiment_EEG_version,20,
Living_Things,../experiment_stimuli/bw_bc_bl/Living_Things/Animals/lynx_24.jpg,Animals,0,lynx,0,32,32,50,139.973268897,nV_V,2,139.993427822,141.245941881,1,2,0.631628522009,141.898143329,1,1,0.310921607306,5,6.0,32,bw,99.7805010546,2019_may_14_1108,018,256,20,5,iñaki,Experiment_EEG_version,20,
Nonliving_Things,../experiment_stimuli/bw_bc_bl/Nonliving_Things/Musical_Inst/tuba_21.jpg,Musical_Inst,0,tuba,0,33,33,89,143.941889635,nV_V,1,143.962244633,145.234608528,1,1,0.761894517054,146.01703839,3,0,0.250787254423,5,6.5,32,bw,99.7805010546,2019_may_14_1108,018,256,20,5,iñaki,Experiment_EEG_version,20,
Nonliving_Things,../experiment_stimuli/bw_bc_bl/Nonliving_Things/Buildings/granary_16.jpg,Buildings,0,granary,0,34,34,35,148.00071068,nV_V,1,148.020745032,149.273382945,1,1,1.10262580268,150.396568582,1,1,0.250618670369,5,6.5,32,bw,99.7805010546,2019_may_14_1108,018,256,20,5,iñaki,Experiment_EEG_version,20,
Living_Things,../experiment_stimuli/bw_bc_bl/Living_Things/Animals/elephant_9.jpg,Animals,0,elephant,0,35,35,27,152.380228876,nV_V,2,152.390417542,153.662920506,1,2,0.681730593496,154.36519611,3,0,0.28085054917,5,7.0,32,bw,99.7805010546,2019_may_14_1108,018,256,20,5,iñaki,Experiment_EEG_version,20,
Nonliving_Things,../experiment_stimuli/bw_bc_bl/Nonliving_Things/Furniture/bedside-table_21.jpg,Furniture,0,bedside-table,0,36,36,6,156.378923604,nV_V,1,156.398888454,157.641571721,1,1,0.721792805707,158.383924345,1,1,0.210683031764,5,8.0,32,bw,99.7805010546,2019_may_14_1108,018,256,20,5,iñaki,Experiment_EEG_version,20,
Living_Things,../experiment_stimuli/bw_bc_bl/Living_Things/Birds/barn-owl_23.jpg,Birds,0,barn-owl,0,37,37,4,160.327509179,V_nV,1,160.347372804,161.610197598,0,2,1.68388576782,163.31462885,1,1,0.280825041875,5,8.0,32,bw,99.7805010546,2019_may_14_1108,018,256,20,5,iñaki,Experiment_EEG_version,20,
Living_Things,../experiment_stimuli/bw_bc_bl/Living_Things/Animals/cat_10.jpg,Animals,0,cat,0,38,38,13,165.32837789,V_nV,1,165.345802193,166.631119597,1,1,0.621598244586,167.273278919,3,0,0.310749963101,5,6.0,32,bw,99.7805010546,2019_may_14_1108,018,256,20,5,iñaki,Experiment_EEG_version,20,
Living_Things,../experiment_stimuli/bw_bc_bl/Living_Things/Insects/scorpion_17.jpg,Insects,0,scorpion,0,39,39,73,169.317048255,V_nV,1,169.337777458,170.589716761,0,2,1.1929305169,171.813223205,1,1,0.230735826888,5,7.5,32,bw,99.7805010546,2019_may_14_1108,018,256,20,5,iñaki,Experiment_EEG_version,20,
Nonliving_Things,../experiment_stimuli/bw_bc_bl/Nonliving_Things/Musical_Inst/piano__21.jpg,Musical_Inst,0,piano,0,40,40,62,173.776742516,V_nV,2,173.798853888,175.069456082,1,2,0.511357270589,175.601372468,1,1,0.180685340718,5,6.5,32,bw,99.7805010546,2019_may_14_1108,018,256,20,5,iñaki,Experiment_EEG_version,20,
Nonliving_Things,../experiment_stimuli/bw_bc_bl/Nonliving_Things/Buildings/mill_1.jpg,Buildings,0,mill,0,41,41,53,177.514874759,V_nV,2,177.535718885,178.837649638,1,2,1.10266454652,179.960910807,2,0,0.240760946472,5,8.0,32,bw,99.7805010546,2019_may_14_1108,018,256,20,5,iñaki,Experiment_EEG_version,20,
Living_Things,../experiment_stimuli/bw_bc_bl/Living_Things/Birds/goldfinch_10.jpg,Birds,0,goldfinch,0,42,42,33,181.934503381,V_nV,1,181.953582686,183.247242125,1,1,0.992220598389,184.260019094,1,1,0.220702707767,5,6.5,32,bw,99.7805010546,2019_may_14_1108,018,256,20,5,iñaki,Experiment_EEG_version,20,
Living_Things,../experiment_stimuli/bw_bc_bl/Living_Things/Birds/raven_8.jpg,Birds,0,raven,0,43,43,67,186.213777749,V_nV,1,186.232587435,187.556613284,1,1,0.862102307554,188.439251215,2,0,0.25078454375,5,6.5,32,bw,99.7805010546,2019_may_14_1108,018,256,20,5,iñaki,Experiment_EEG_version,20,
Living_Things,../experiment_stimuli/bw_bc_bl/Living_Things/Birds/pelican_14.jpg,Birds,0,pelican,0,44,44,60,190.422930791,V_nV,1,190.44681252,191.765751334,1,1,0.721798377053,192.508109161,3,0,0.230737112637,5,6.0,32,bw,99.7805010546,2019_may_14_1108,018,256,20,5,iñaki,Experiment_EEG_version,20,
Nonliving_Things,../experiment_stimuli/bw_bc_bl/Nonliving_Things/Furniture/sofa_4.jpg,Furniture,0,sofa,0,45,45,78,194.471729712,V_nV,2,194.48813712,195.774461472,1,2,0.862105762528,196.657126353,3,0,0.170591696107,5,6.5,32,bw,99.7805010546,2019_may_14_1108,018,256,20,5,iñaki,Experiment_EEG_version,20,
Living_Things,../experiment_stimuli/bw_bc_bl/Living_Things/Animals/armadillo_0.jpg,Animals,0,armadillo,0,46,46,1,198.560630983,nV_V,2,198.57092855,199.823262423,1,2,0.571478608588,200.415329143,2,0,0.230567949999,5,6.5,32,bw,99.7805010546,2019_may_14_1108,018,256,20,5,iñaki,Experiment_EEG_version,20,
Nonliving_Things,../experiment_stimuli/bw_bc_bl/Nonliving_Things/Furniture/filling-cabinet_19.jpg,Furniture,0,filling-cabinet,0,47,47,29,202.37892101,V_nV,2,202.396165327,203.641561878,1,2,1.09260240098,204.754717624,1,1,0.140586666879,5,6.0,32,bw,99.7805010546,2019_may_14_1108,018,256,20,5,iñaki,Experiment_EEG_version,20,
Living_Things,../experiment_stimuli/bw_bc_bl/Living_Things/Birds/toucan_9.jpg,Birds,0,toucan,0,48,48,85,206.62815161,V_nV,1,206.647789964,207.900827894,1,1,0.611567328044,208.532934563,1,1,0.200663302676,5,6.0,32,bw,99.7805010546,2019_may_14_1108,018,256,20,5,iñaki,Experiment_EEG_version,20,
Living_Things,../experiment_stimuli/bw_bc_bl/Living_Things/Animals/cow_26.jpg,Animals,0,cow,0,49,49,20,210.466505105,nV_V,2,210.487981263,211.769233293,0,1,0.902184959035,212.691992217,2,0,0.210675140726,5,6.0,32,bw,99.7805010546,2019_may_14_1108,018,256,20,5,iñaki,Experiment_EEG_version,20,
Living_Things,../experiment_stimuli/bw_bc_bl/Living_Things/Animals/tapir_2.jpg,Animals,0,tapir,0,50,50,82,214.635596916,nV_V,2,214.654322903,215.928287245,1,2,0.461231916852,216.410064992,2,0,0.23072078597,5,6.5,32,bw,99.7805010546,2019_may_14_1108,018,256,20,5,iñaki,Experiment_EEG_version,20,
Nonliving_Things,../experiment_stimuli/bw_bc_bl/Nonliving_Things/Vehicles/train_25.jpg,Vehicles,0,train,0,51,51,87,218.373690794,V_nV,2,218.397528303,219.666414472,1,2,0.611552414543,220.298496018,1,1,0.922221254674,5,6.0,32,bw,99.7805010546,2019_may_14_1108,018,256,20,5,iñaki,Experiment_EEG_version,20,
Nonliving_Things,../experiment_stimuli/bw_bc_bl/Nonliving_Things/Kitchen_Uten/saucepan_0.jpg,Kitchen_Uten,0,saucepan,0,52,52,71,222.953641311,V_nV,2,222.973584522,224.256386098,1,2,0.601541580516,224.878475651,3,0,0.260789671098,5,6.0,32,bw,99.7805010546,2019_may_14_1108,018,256,20,5,iñaki,Experiment_EEG_version,20,
Living_Things,../experiment_stimuli/bw_bc_bl/Living_Things/Birds/duck_2.jpg,Birds,0,duck,0,53,53,26,226.872166974,nV_V,2,226.894728508,228.144828022,1,2,0.962317011552,229.127693326,1,1,0.591528799094,5,6.0,32,bw,99.7805010546,2019_may_14_1108,018,256,20,5,iñaki,Experiment_EEG_version,20,
Living_Things,../experiment_stimuli/bw_bc_bl/Living_Things/Animals/turtle_19.jpg,Animals,0,turtle,0,54,54,90,231.452113036,V_nV,1,231.475626624,232.754852379,1,1,1.15273246856,233.928154049,1,1,0.40109577094,5,8.0,32,bw,99.7805010546,2019_may_14_1108,018,256,20,5,iñaki,Experiment_EEG_version,20,
Living_Things,../experiment_stimuli/bw_bc_bl/Living_Things/Insects/dragonfly_0.jpg,Insects,0,dragonfly,0,55,55,24,236.06214566,V_nV,1,236.083091879,237.37489651,1,1,0.892167624901,238.287629732,3,0,0.240742988302,5,6.0,32,bw,99.7805010546,2019_may_14_1108,018,256,20,5,iñaki,Experiment_EEG_version,20,
Nonliving_Things,../experiment_stimuli/bw_bc_bl/Nonliving_Things/Kitchen_Uten/cup_20.jpg,Kitchen_Uten,0,cup,0,56,56,22,240.261273662,nV_V,1,240.278646135,241.553990223,1,1,0.631625345151,242.206168244,1,1,0.280827432813,5,6.0,32,bw,99.7805010546,2019_may_14_1108,018,256,20,5,iñaki,Experiment_EEG_version,20,
Living_Things,../experiment_stimuli/bw_bc_bl/Living_Things/Marine_creatures/dolphin_9.jpg,Marine_creatures,0,dolphin,0,57,57,23,244.219874547,V_nV,1,244.235818522,245.522607864,1,1,0.962320056278,246.505487581,2,0,0.310745827854,5,6.0,32,bw,99.7805010546,2019_may_14_1108,018,256,20,5,iñaki,Experiment_EEG_version,20,
Living_Things,../experiment_stimuli/bw_bc_bl/Living_Things/Marine_creatures/sperm-whale_10.jpg,Marine_creatures,0,sperm-whale,0,58,58,80,248.54928566,V_nV,1,248.565797702,249.841996831,1,1,0.801800735062,250.664371918,2,0,0.240739183791,5,6.5,32,bw,99.7805010546,2019_may_14_1108,018,256,20,5,iñaki,Experiment_EEG_version,20,
Nonliving_Things,../experiment_stimuli/bw_bc_bl/Nonliving_Things/Kitchen_Uten/coking-pot_22.jpg,Kitchen_Uten,0,coking-pot,0,59,59,18,252.638172586,V_nV,2,252.653926484,253.92085831,1,2,0.771898610808,254.723330866,3,0,0.260806197184,5,6.0,32,bw,99.7805010546,2019_may_14_1108,018,256,20,5,iñaki,Experiment_EEG_version,20,
Nonliving_Things,../experiment_stimuli/bw_bc_bl/Nonliving_Things/Buildings/castle_22.jpg,Buildings,0,castle,0,60,60,12,256.717039625,V_nV,2,256.737576324,257.979684648,1,2,0.832061997324,258.832311854,1,1,0.24074572511,5,6.5,32,bw,99.7805010546,2019_may_14_1108,018,256,20,5,iñaki,Experiment_EEG_version,20,
Nonliving_Things,../experiment_stimuli/bw_bc_bl/Nonliving_Things/Buildings/cathedral_16.jpg,Buildings,0,cathedral,0,61,61,14,260.80593016,V_nV,2,260.821658552,262.098654459,1,2,0.621574988938,262.740786724,1,1,0.180614372133,5,6.0,32,bw,99.7805010546,2019_may_14_1108,018,256,20,5,iñaki,Experiment_EEG_version,20,
Living_Things,../experiment_stimuli/bw_bc_bl/Living_Things/Marine_creatures/shark_20.jpg,Marine_creatures,0,shark,0,62,62,75,264.65429008,nV_V,2,264.672973636,265.967046531,1,2,2.7763333139,268.763959264,1,1,0.200669284037,5,6.0,32,bw,99.7805010546,2019_may_14_1108,018,256,20,5,iñaki,Experiment_EEG_version,20,
Nonliving_Things,../experiment_stimuli/bw_bc_bl/Nonliving_Things/Furniture/lectern_24.jpg,Furniture,0,lectern,0,63,63,47,270.697435074,nV_V,1,270.719559137,272.020212573,1,1,0.601534189598,272.642305653,3,0,0.812007599918,5,6.0,32,bw,99.7805010546,2019_may_14_1108,018,256,20,5,iñaki,Experiment_EEG_version,20,
Nonliving_Things,../experiment_stimuli/bw_bc_bl/Nonliving_Things/Furniture/rocking-chair_12.jpg,Furniture,0,rocking-chair,0,64,64,69,275.187190616,nV_V,1,275.210545263,276.479904802,1,1,0.611562760314,277.112028666,3,0,0.25061277533,5,6.0,32,bw,99.7805010546,2019_may_14_1108,018,256,20,5,iñaki,Experiment_EEG_version,20,
Nonliving_Things,../experiment_stimuli/bw_bc_bl/Nonliving_Things/Furniture/couch_23.jpg,Furniture,0,couch,0,65,65,19,279.095681291,V_nV,2,279.11784132,280.368363203,1,2,0.571462883439,280.970378642,1,1,0.210710501124,5,7.5,32,bw,99.7805010546,2019_may_14_1108,018,256,20,5,iñaki,Experiment_EEG_version,20,
Nonliving_Things,../experiment_stimuli/bw_bc_bl/Nonliving_Things/Kitchen_Uten/pot_20.jpg,Kitchen_Uten,0,pot,0,66,66,66,282.913983656,nV_V,1,282.935810907,284.216716078,1,1,0.781930403085,285.019195799,3,0,0.340962748451,5,6.5,32,bw,99.7805010546,2019_may_14_1108,018,256,20,5,iñaki,Experiment_EEG_version,20,
Living_Things,../experiment_stimuli/bw_bc_bl/Living_Things/Birds/rooster_5.jpg,Birds,0,rooster,0,67,67,70,287.093073418,V_nV,1,287.11239269,288.385784795,1,1,0.751856322458,289.158200647,2,0,0.711800106685,5,6.5,32,bw,99.7805010546,2019_may_14_1108,018,256,20,5,iñaki,Experiment_EEG_version,20,
Living_Things,../experiment_stimuli/bw_bc_bl/Living_Things/Marine_creatures/whale_6.jpg,Marine_creatures,0,whale,0,68,68,94,291.602879297,nV_V,2,291.623976968,292.885570633,1,2,0.912230352929,293.818380706,1,1,0.320937730954,5,7.5,32,bw,99.7805010546,2019_may_14_1108,018,256,20,5,iñaki,Experiment_EEG_version,20,
Living_Things,../experiment_stimuli/bw_bc_bl/Living_Things/Insects/butterfly_13.jpg,Insects,0,butterfly,0,69,69,10,295.872151906,nV_V,2,295.890984809,297.174884279,1,2,1.24293745129,298.438383015,3,0,0.200663584867,5,6.0,32,bw,99.7805010546,2019_may_14_1108,018,256,20,5,iñaki,Experiment_EEG_version,20,
Nonliving_Things,../experiment_stimuli/bw_bc_bl/Nonliving_Things/Vehicles/plane_1.jpg,Vehicles,0,plane,0,70,70,64,300.371938248,V_nV,2,300.394012507,301.644604803,0,1,1.19282604114,302.857994516,1,1,0.190648311167,5,7.0,32,bw,99.7805010546,2019_may_14_1108,018,256,20,5,iñaki,Experiment_EEG_version,20,
Nonliving_Things,../experiment_stimuli/bw_bc_bl/Nonliving_Things/Musical_Inst/saxophone_5.jpg,Musical_Inst,0,saxophone,0,71,71,72,304.781518705,V_nV,2,304.799944531,306.084258871,1,2,0.8621058563,306.966914854,1,1,0.160416450526,5,8.0,32,bw,99.7805010546,2019_may_14_1108,018,256,20,5,iñaki,Experiment_EEG_version,20,
Living_Things,../experiment_stimuli/bw_bc_bl/Living_Things/Animals/hippopotamus_20.jpg,Animals,0,hippopotamus,0,72,72,39,308.86038735,nV_V,2,308.876389448,310.173141955,1,2,1.04249364883,311.236183299,3,0,0.170623462589,5,6.0,32,bw,99.7805010546,2019_may_14_1108,018,256,20,5,iñaki,Experiment_EEG_version,20,
Living_Things,../experiment_stimuli/bw_bc_bl/Living_Things/Birds/hummingbird_12.jpg,Birds,0,hummingbird,0,73,73,42,313.139703361,nV_V,2,313.163365638,314.442425959,1,2,0.601556493668,315.064539083,1,1,0.51134983066,5,6.0,32,bw,99.7805010546,2019_may_14_1108,018,256,20,5,iñaki,Experiment_EEG_version,20,
Nonliving_Things,../experiment_stimuli/bw_bc_bl/Nonliving_Things/Musical_Inst/violin_22.jpg,Musical_Inst,0,violin,0,74,74,92,317.308752191,V_nV,2,317.325428373,318.631543694,1,2,0.882170775556,319.534261954,2,0,0.210682253412,5,6.5,32,bw,99.7805010546,2019_may_14_1108,018,256,20,5,iñaki,Experiment_EEG_version,20,
Living_Things,../experiment_stimuli/bw_bc_bl/Living_Things/Animals/tiger_18.jpg,Animals,0,tiger,0,75,75,84,321.477844182,nV_V,2,321.495635085,322.800601701,1,2,1.18284339464,324.004013996,3,0,0.210700595053,5,6.0,32,bw,99.7805010546,2019_may_14_1108,018,256,20,5,iñaki,Experiment_EEG_version,20,
Living_Things,../experiment_stimuli/bw_bc_bl/Living_Things/Birds/sparrow_9.jpg,Birds,0,sparrow,0,76,76,79,325.94752961,V_nV,1,325.968030966,327.240241919,1,1,0.63159932656,327.892395279,3,0,0.180613511067,5,6.0,32,bw,99.7805010546,2019_may_14_1108,018,256,20,5,iñaki,Experiment_EEG_version,20,
Nonliving_Things,../experiment_stimuli/bw_bc_bl/Nonliving_Things/Furniture/wardrobe_21.jpg,Furniture,0,wardrobe,0,77,77,93,329.805944483,V_nV,2,329.827219133,331.078587907,1,2,0.591512397223,331.690665292,3,0,0.230718398583,5,6.0,32,bw,99.7805010546,2019_may_14_1108,018,256,20,5,iñaki,Experiment_EEG_version,20,
Living_Things,../experiment_stimuli/bw_bc_bl/Living_Things/Marine_creatures/crab_18.jpg,Marine_creatures,0,crab,0,78,78,21,333.654295981,V_nV,1,333.678411606,334.906907629,0,2,0.671694775228,335.599191075,1,1,0.18066079251,5,6.0,32,bw,99.7805010546,2019_may_14_1108,018,256,20,5,iñaki,Experiment_EEG_version,20,
Living_Things,../experiment_stimuli/bw_bc_bl/Living_Things/Marine_creatures/manatee_13.jpg,Marine_creatures,0,manatee,0,79,79,52,337.512671599,nV_V,2,337.517785714,338.765300314,1,2,1.52355730068,340.309412223,1,1,0.280827128503,5,6.0,32,bw,99.7805010546,2019_may_14_1108,018,256,20,5,iñaki,Experiment_EEG_version,20,
Living_Things,../experiment_stimuli/bw_bc_bl/Living_Things/Birds/pigeon_17.jpg,Birds,0,pigeon,0,80,80,63,342.323129635,V_nV,1,342.345551562,343.605821614,1,1,1.06255935755,344.688935761,1,1,0.170613924973,5,7.0,32,bw,99.7805010546,2019_may_14_1108,018,256,20,5,iñaki,Experiment_EEG_version,20,
Living_Things,../experiment_stimuli/bw_bc_bl/Living_Things/Birds/ostrich_4.jpg,Birds,0,ostrich,0,81,81,56,346.592409508,V_nV,1,346.61430616,347.905166974,1,1,1.09260735573,349.018329682,1,1,0.170439047739,5,7.0,32,bw,99.7805010546,2019_may_14_1108,018,256,20,5,iñaki,Experiment_EEG_version,20,
Nonliving_Things,../experiment_stimuli/bw_bc_bl/Nonliving_Things/Furniture/bookcase_2.jpg,Furniture,0,bookcase,0,82,82,8,350.92182082,V_nV,2,350.943509949,352.24460115,1,2,0.521203697077,352.786358793,3,0,0.160569174099,5,6.5,32,bw,99.7805010546,2019_may_14_1108,018,256,20,5,iñaki,Experiment_EEG_version,20,
Living_Things,../experiment_stimuli/bw_bc_bl/Living_Things/Birds/partridge_23.jpg,Birds,0,partridge,0,83,83,59,354.679995907,V_nV,1,354.697290366,355.972700307,1,1,0.581493533216,356.574751128,3,0,0.190621258516,5,7.5,32,bw,99.7805010546,2019_may_14_1108,018,256,20,5,iñaki,Experiment_EEG_version,20,
Nonliving_Things,../experiment_stimuli/bw_bc_bl/Nonliving_Things/Kitchen_Uten/fondue_17.jpg,Kitchen_Uten,0,fondue,0,84,84,30,358.498286369,nV_V,1,358.521256792,359.760939809,0,2,0.842051470419,360.623538211,1,1,0.180651533068,5,6.0,32,bw,99.7805010546,2019_may_14_1108,018,256,20,5,iñaki,Experiment_EEG_version,20,
Nonliving_Things,../experiment_stimuli/bw_bc_bl/Nonliving_Things/Vehicles/motorbike_25.jpg,Vehicles,0,motorbike,0,85,85,54,362.537077174,V_nV,2,362.557247021,363.809739557,1,2,0.531401224085,364.361717603,3,0,0.180636563397,5,7.5,32,bw,99.7805010546,2019_may_14_1108,018,256,20,5,iñaki,Experiment_EEG_version,20,
Nonliving_Things,../experiment_stimuli/bw_bc_bl/Nonliving_Things/Musical_Inst/trumpet_14.jpg,Musical_Inst,0,trumpet,0,86,86,88,366.275200011,nV_V,1,366.299048624,367.527825771,1,1,0.78192324168,368.330315139,1,1,0.180646458,5,6.5,32,bw,99.7805010546,2019_may_14_1108,018,256,20,5,iñaki,Experiment_EEG_version,20,
Nonliving_Things,../experiment_stimuli/bw_bc_bl/Nonliving_Things/Buildings/church_20.jpg,Buildings,0,church,0,87,87,17,370.243818355,V_nV,2,370.259526667,371.49644787,0,1,0.892160771764,372.409185532,1,1,0.200505462883,5,6.5,32,bw,99.7805010546,2019_may_14_1108,018,256,20,5,iñaki,Experiment_EEG_version,20,
Living_Things,../experiment_stimuli/bw_bc_bl/Living_Things/Birds/penguin_10.jpg,Birds,0,penguin,0,88,88,61,374.3427304,V_nV,1,374.36834577,375.635449879,1,1,0.651689828606,376.307676214,3,0,0.340960820089,5,6.0,32,bw,99.7805010546,2019_may_14_1108,018,256,20,5,iñaki,Experiment_EEG_version,20,
Nonliving_Things,../experiment_stimuli/bw_bc_bl/Nonliving_Things/Kitchen_Uten/teapot_23.jpg,Kitchen_Uten,0,teapot,0,89,89,83,378.381525217,nV_V,1,378.386797701,379.634141296,1,1,3.65817326354,383.312870502,1,1,0.150546208431,5,6.5,32,bw,99.7805010546,2019_may_14_1108,018,256,20,5,iñaki,Experiment_EEG_version,20,
Nonliving_Things,../experiment_stimuli/bw_bc_bl/Nonliving_Things/Buildings/house_26.jpg,Buildings,0,house,0,90,90,41,385.196326314,V_nV,2,385.212198075,386.469000271,1,2,1.01243952644,387.50199994,1,1,0.200660054688,5,6.0,32,bw,99.7805010546,2019_may_14_1108,018,256,20,5,iñaki,Experiment_EEG_version,20,
Living_Things,../experiment_stimuli/bw_bc_bl/Living_Things/Birds/seagull_5.jpg,Birds,0,seagull,0,91,91,74,389.43554047,nV_V,2,389.452975882,390.728263539,1,2,1.79412940703,392.542928219,1,1,0.160411514691,5,6.0,32,bw,99.7805010546,2019_may_14_1108,018,256,20,5,iñaki,Experiment_EEG_version,20,
Nonliving_Things,../experiment_stimuli/bw_bc_bl/Nonliving_Things/Tools/hammer_1.jpg,Tools,0,hammer,0,92,92,37,394.436417895,nV_V,1,394.451855531,395.75919821,1,1,0.691724796314,396.471473081,1,1,0.180663544044,5,6.0,32,bw,99.7805010546,2019_may_14_1108,018,256,20,5,iñaki,Experiment_EEG_version,20,
Nonliving_Things,../experiment_stimuli/bw_bc_bl/Nonliving_Things/Musical_Inst/drum_16.jpg,Musical_Inst,0,drum,0,93,93,25,398.384997454,nV_V,1,398.403026219,399.727818697,1,1,0.691731897881,400.440132774,3,0,0.160566072795,5,7.5,32,bw,99.7805010546,2019_may_14_1108,018,256,20,5,iñaki,Experiment_EEG_version,20,
Nonliving_Things,../experiment_stimuli/bw_bc_bl/Nonliving_Things/Buildings/factory_7.jpg,Buildings,0,factory,0,94,94,28,402.333583059,nV_V,1,402.353687748,403.646344427,1,1,0.671688278671,404.338575731,1,1,0.190636570507,5,6.0,32,bw,99.7805010546,2019_may_14_1108,018,256,20,5,iñaki,Experiment_EEG_version,20,
Nonliving_Things,../experiment_stimuli/bw_bc_bl/Nonliving_Things/Vehicles/tractor_22.jpg,Vehicles,0,tractor,0,95,95,86,406.262119416,V_nV,2,406.276643825,407.594924092,1,2,0.77190806932,408.387385104,3,0,0.230715090409,5,8.0,32,bw,99.7805010546,2019_may_14_1108,018,256,20,5,iñaki,Experiment_EEG_version,20,
