category,probe_path,subcategory,fixation_duration,label,trials.thisRepN,trials.thisTrialN,trials.thisN,trials.thisIndex,image_onset_time,response_window,correctAns,probe_onset,discrim_resptime,response.corr,response.keys,response.rt,visible_resptime,visible.keys,visible.corr,visible.rt,probeFrames,jitter2,n_square,experiment_color,frameRate,date,session,image_size,premask_dur,probeFrames,participant,expName,postmask_dur,
Nonliving_Things,../experiment_stimuli/bw_bc_bl/Nonliving_Things/Kitchen_Uten/frying-pan_23.jpg,Kitchen_Uten,0,frying-pan,0,0,0,31,3.72499823884,nV_V,1,3.7585768632,5.02767921404,1,1,1.8642880861,6.92280788102,3,0,0.641617859752,5,6.0,32,bw,99.7831884908,2019_may_09_1652,004,256,20,5,iñaki,Experiment_EEG_version,20,
Nonliving_Things,../experiment_stimuli/bw_bc_bl/Nonliving_Things/Kitchen_Uten/fondue_4.jpg,Kitchen_Uten,0,fondue,0,1,1,30,9.29705560393,nV_V,1,9.33449564668,10.5797475496,1,1,1.60371339329,12.2040141674,1,1,0.551269372083,5,6.5,32,bw,99.7831884908,2019_may_09_1652,004,256,20,5,iñaki,Experiment_EEG_version,20,
Living_Things,../experiment_stimuli/bw_bc_bl/Living_Things/Birds/kiwi_17.jpg,Birds,0,kiwi,0,2,2,44,14.4883369637,V_nV,1,14.5038555459,15.7610175902,1,1,2.33530346468,18.1168636969,1,1,1.33311552072,5,6.0,32,bw,99.7831884908,2019_may_09_1652,004,256,20,5,iñaki,Experiment_EEG_version,20,
Living_Things,../experiment_stimuli/bw_bc_bl/Living_Things/Animals/cat_8.jpg,Animals,0,cat,0,3,3,13,21.1828955987,nV_V,2,21.1990410481,22.4856232499,1,2,1.53356920237,24.0397436428,3,0,0.541396652394,5,6.0,32,bw,99.7831884908,2019_may_09_1652,004,256,20,5,iñaki,Experiment_EEG_version,20,
Living_Things,../experiment_stimuli/bw_bc_bl/Living_Things/Birds/rooster_19.jpg,Birds,0,rooster,0,4,4,70,26.3140456803,V_nV,1,26.3338372243,27.5967314231,1,1,1.52354388372,29.1408307493,3,0,0.39109218092,5,6.0,32,bw,99.7831884908,2019_may_09_1652,004,256,20,5,iñaki,Experiment_EEG_version,20,
Living_Things,../experiment_stimuli/bw_bc_bl/Living_Things/Marine_creatures/crab_11.jpg,Marine_creatures,0,crab,0,5,5,21,31.2648039473,nV_V,2,31.2828999588,32.5174267257,0,1,0.611397409273,33.149401972,1,1,0.441181076176,5,6.5,32,bw,99.7831884908,2019_may_09_1652,004,256,20,5,iñaki,Experiment_EEG_version,20,
Living_Things,../experiment_stimuli/bw_bc_bl/Living_Things/Birds/seagull_4.jpg,Birds,0,seagull,0,6,6,74,35.323635905,V_nV,1,35.3403572222,36.5862692056,0,2,1.25296796931,37.8597967111,1,1,1.71394081073,5,7.5,32,bw,99.7831884908,2019_may_09_1652,004,256,20,5,iñaki,Experiment_EEG_version,20,
Living_Things,../experiment_stimuli/bw_bc_bl/Living_Things/Birds/raven_13.jpg,Birds,0,raven,0,7,7,67,41.3066650159,nV_V,2,41.3294311639,42.5993382096,1,2,1.68388896328,44.3038476481,3,0,0.651654987039,5,8.0,32,bw,99.7831884908,2019_may_09_1652,004,256,20,5,iñaki,Experiment_EEG_version,20,
Nonliving_Things,../experiment_stimuli/bw_bc_bl/Nonliving_Things/Buildings/cathedral_24.jpg,Buildings,0,cathedral,0,8,8,14,46.688324608,V_nV,2,46.708237631,47.9609956295,1,2,1.05252596383,49.0340725321,1,1,0.571461338543,5,7.5,32,bw,99.7831884908,2019_may_09_1652,004,256,20,5,iñaki,Experiment_EEG_version,20,
Living_Things,../experiment_stimuli/bw_bc_bl/Living_Things/Birds/toucan_2.jpg,Birds,0,toucan,0,9,9,85,51.3384377406,V_nV,1,51.3613286723,52.6311463323,1,1,0.852098672773,53.5038014396,1,1,1.15272481454,5,6.0,32,bw,99.7831884908,2019_may_09_1652,004,256,20,5,iñaki,Experiment_EEG_version,20,
Nonliving_Things,../experiment_stimuli/bw_bc_bl/Nonliving_Things/Furniture/sofa_18.jpg,Furniture,0,sofa,0,10,10,78,56.3894189854,V_nV,2,56.4057948601,57.702167433,1,2,1.3932711891,59.115996478,3,0,0.791946019033,5,6.5,32,bw,99.7831884908,2019_may_09_1652,004,256,20,5,iñaki,Experiment_EEG_version,20,
Nonliving_Things,../experiment_stimuli/bw_bc_bl/Nonliving_Things/Furniture/bedside-table_10.jpg,Furniture,0,bedside-table,0,11,11,6,61.6408276118,V_nV,2,61.6579432017,62.9335382787,1,2,2.01459833228,64.9687005045,3,0,0.5113297937,5,8.0,32,bw,99.7831884908,2019_may_09_1652,004,256,20,5,iñaki,Experiment_EEG_version,20,
Nonliving_Things,../experiment_stimuli/bw_bc_bl/Nonliving_Things/Buildings/granary_4.jpg,Buildings,0,granary,0,12,12,35,67.21293795,nV_V,1,67.2367546129,68.4856060654,1,1,1.15273760383,69.6588849916,2,0,0.391065876607,5,6.5,32,bw,99.7831884908,2019_may_09_1652,004,256,20,5,iñaki,Experiment_EEG_version,20,
Living_Things,../experiment_stimuli/bw_bc_bl/Living_Things/Animals/lioness_13.jpg,Animals,0,lioness,0,13,13,48,71.7828677835,nV_V,2,71.798297777,73.0354965471,0,1,0.761906321426,73.8179686979,1,1,0.571462116546,5,6.0,32,bw,99.7831884908,2019_may_09_1652,004,256,20,5,iñaki,Experiment_EEG_version,20,
Living_Things,../experiment_stimuli/bw_bc_bl/Living_Things/Marine_creatures/pomfret_6.jpg,Marine_creatures,0,pomfret,0,14,14,65,76.1223014257,nV_V,2,76.1384599164,77.4049907474,0,1,1.48345601424,78.9089938694,2,0,0.401105289218,5,7.0,32,bw,99.7831884908,2019_may_09_1652,004,256,20,5,iñaki,Experiment_EEG_version,20,
Nonliving_Things,../experiment_stimuli/bw_bc_bl/Nonliving_Things/Musical_Inst/violin_21.jpg,Musical_Inst,0,violin,0,15,15,92,81.0429979352,V_nV,2,81.081435103,82.3357099404,0,1,0.661663899909,83.0179326773,1,1,0.852068409689,5,7.0,32,bw,99.7831884908,2019_may_09_1652,004,256,20,5,iñaki,Experiment_EEG_version,20,
Living_Things,../experiment_stimuli/bw_bc_bl/Living_Things/Animals/cheetah_2.jpg,Animals,0,cheetah,0,16,16,16,85.6029099537,nV_V,2,85.6187510691,86.8855984182,1,2,0.952295805288,87.8584534554,2,0,1.17277982055,5,6.0,32,bw,99.7831884908,2019_may_09_1652,004,256,20,5,iñaki,Experiment_EEG_version,20,
Nonliving_Things,../experiment_stimuli/bw_bc_bl/Nonliving_Things/Furniture/Chest-of-drawers_19.jpg,Furniture,0,Chest-of-drawers,0,17,17,0,90.7641253641,nV_V,1,90.7811207226,92.0367949535,1,1,0.852081954788,92.909439655,2,0,0.771906520495,5,6.0,32,bw,99.7831884908,2019_may_09_1652,004,256,20,5,iñaki,Experiment_EEG_version,20,
Nonliving_Things,../experiment_stimuli/bw_bc_bl/Nonliving_Things/Vehicles/tractor_4.jpg,Vehicles,0,tractor,0,18,18,86,95.4142332151,V_nV,2,95.4417847227,96.6869070371,1,2,1.26297213037,97.9704168358,2,0,0.781925598631,5,6.0,32,bw,99.7831884908,2019_may_09_1652,004,256,20,5,iñaki,Experiment_EEG_version,20,
Nonliving_Things,../experiment_stimuli/bw_bc_bl/Nonliving_Things/Vehicles/car_7.jpg,Vehicles,0,car,0,19,19,11,100.485256748,nV_V,1,100.518375251,101.747905545,1,1,0.832028674133,102.600510503,1,1,0.771904422421,5,6.0,32,bw,99.7831884908,2019_may_09_1652,004,256,20,5,iñaki,Experiment_EEG_version,20,
Living_Things,../experiment_stimuli/bw_bc_bl/Living_Things/Animals/horse_2.jpg,Animals,0,horse,0,20,20,40,105.105303398,V_nV,1,105.128322741,106.377968374,1,1,1.48329468536,107.881820525,3,0,0.491287501791,5,7.5,32,bw,99.7831884908,2019_may_09_1652,004,256,20,5,iñaki,Experiment_EEG_version,20,
Living_Things,../experiment_stimuli/bw_bc_bl/Living_Things/Animals/armadillo_19.jpg,Animals,0,armadillo,0,21,21,1,110.106176612,nV_V,2,110.121867298,111.348790493,0,1,0.320953719245,111.690283095,1,1,0.561443560779,5,6.0,32,bw,99.7831884908,2019_may_09_1652,004,256,20,5,iñaki,Experiment_EEG_version,20,
Living_Things,../experiment_stimuli/bw_bc_bl/Living_Things/Marine_creatures/killer-whale_12.jpg,Marine_creatures,0,killer-whale,0,22,22,43,113.984605759,nV_V,2,114.011725025,115.247247526,0,1,0.701753006402,115.969563974,1,1,0.451201045456,5,6.5,32,bw,99.7831884908,2019_may_09_1652,004,256,20,5,iñaki,Experiment_EEG_version,20,
Nonliving_Things,../experiment_stimuli/bw_bc_bl/Nonliving_Things/Vehicles/motorbike_20.jpg,Vehicles,0,motorbike,0,23,23,54,118.153664995,V_nV,2,118.182130738,119.436352265,1,2,0.791949312219,120.248847501,3,0,0.591510667589,5,6.0,32,bw,99.7831884908,2019_may_09_1652,004,256,20,5,iñaki,Experiment_EEG_version,20,
Nonliving_Things,../experiment_stimuli/bw_bc_bl/Nonliving_Things/Buildings/mill_9.jpg,Buildings,0,mill,0,24,24,53,122.57327055,V_nV,2,122.606619501,123.825898678,0,1,2.5658009606,126.412286949,1,1,0.962314379673,5,6.0,32,bw,99.7831884908,2019_may_09_1652,004,256,20,5,iñaki,Experiment_EEG_version,20,
Nonliving_Things,../experiment_stimuli/bw_bc_bl/Nonliving_Things/Buildings/factory_5.jpg,Buildings,0,factory,0,25,25,28,129.10747577,nV_V,1,129.12670774,130.360097579,1,1,0.801962266562,131.192659674,1,1,1.11265174183,5,6.5,32,bw,99.7831884908,2019_may_09_1652,004,256,20,5,iñaki,Experiment_EEG_version,20,
Nonliving_Things,../experiment_stimuli/bw_bc_bl/Nonliving_Things/Furniture/armchair_12.jpg,Furniture,0,armchair,0,26,26,2,134.038191787,nV_V,1,134.055050045,135.300866752,1,1,1.06253108727,136.393960763,1,1,1.07255365444,5,6.5,32,bw,99.7831884908,2019_may_09_1652,004,256,20,5,iñaki,Experiment_EEG_version,20,
Nonliving_Things,../experiment_stimuli/bw_bc_bl/Nonliving_Things/Furniture/lectern_14.jpg,Furniture,0,lectern,0,27,27,47,139.199412058,V_nV,2,139.216569414,140.472079929,1,2,1.15275366769,141.645398521,1,1,1.64405542849,5,7.5,32,bw,99.7831884908,2019_may_09_1652,004,256,20,5,iñaki,Experiment_EEG_version,20,
Nonliving_Things,../experiment_stimuli/bw_bc_bl/Nonliving_Things/Furniture/wardrobe_19.jpg,Furniture,0,wardrobe,0,28,28,93,145.022076075,V_nV,2,145.038297505,146.304769554,1,2,1.27299124646,147.598312912,2,0,0.541405648326,5,6.0,32,bw,99.7831884908,2019_may_09_1652,004,256,20,5,iñaki,Experiment_EEG_version,20,
Living_Things,../experiment_stimuli/bw_bc_bl/Living_Things/Birds/hen_11.jpg,Birds,0,hen,0,29,29,38,149.872609638,V_nV,1,149.886671948,151.14527896,1,1,1.38323331424,152.549066228,2,0,0.992390933892,5,6.5,32,bw,99.7831884908,2019_may_09_1652,004,256,20,5,iñaki,Experiment_EEG_version,20,
Nonliving_Things,../experiment_stimuli/bw_bc_bl/Nonliving_Things/Musical_Inst/saxophone_3.jpg,Musical_Inst,0,saxophone,0,30,30,72,155.274349596,nV_V,1,155.304880908,156.547021039,0,2,0.992385366482,157.559959303,1,1,0.982367269355,5,6.5,32,bw,99.7831884908,2019_may_09_1652,004,256,20,5,iñaki,Experiment_EEG_version,20,
Nonliving_Things,../experiment_stimuli/bw_bc_bl/Nonliving_Things/Kitchen_Uten/cup_21.jpg,Kitchen_Uten,0,cup,0,31,31,22,160.27522186,V_nV,2,160.295681552,161.547902344,1,2,1.55361069372,163.122058048,1,1,1.73399501976,5,6.5,32,bw,99.7831884908,2019_may_09_1652,004,256,20,5,iñaki,Experiment_EEG_version,20,
Nonliving_Things,../experiment_stimuli/bw_bc_bl/Nonliving_Things/Buildings/church_0.jpg,Buildings,0,church,0,32,32,17,166.588959103,nV_V,1,166.620668984,167.901705633,1,1,1.09262492338,169.014868541,1,1,1.57363876386,5,6.0,32,bw,99.7831884908,2019_may_09_1652,004,256,20,5,iñaki,Experiment_EEG_version,20,
Nonliving_Things,../experiment_stimuli/bw_bc_bl/Nonliving_Things/Furniture/chair_3.jpg,Furniture,0,chair,0,33,33,15,172.321413979,nV_V,1,172.340532728,173.644183817,1,1,1.04249105133,174.707229799,1,1,1.01226624717,5,6.0,32,bw,99.7831884908,2019_may_09_1652,004,256,20,5,iñaki,Experiment_EEG_version,20,
Living_Things,../experiment_stimuli/bw_bc_bl/Living_Things/Animals/rhino_23.jpg,Animals,0,rhino,0,34,34,68,177.452562956,V_nV,1,177.471266365,178.795377781,1,1,1.03247279989,179.848400828,3,0,0.651640407943,5,6.0,32,bw,99.7831884908,2019_may_09_1652,004,256,20,5,iñaki,Experiment_EEG_version,20,
Nonliving_Things,../experiment_stimuli/bw_bc_bl/Nonliving_Things/Vehicles/bus_13.jpg,Vehicles,0,bus,0,35,35,9,182.232956275,nV_V,1,182.26172922,183.555735936,1,1,2.11482630646,185.691108065,2,0,0.852075496234,5,6.0,32,bw,99.7831884908,2019_may_09_1652,004,256,20,5,iñaki,Experiment_EEG_version,20,
Nonliving_Things,../experiment_stimuli/bw_bc_bl/Nonliving_Things/Tools/hammer_4.jpg,Tools,0,hammer,0,36,36,37,188.276099322,nV_V,1,188.287016602,189.568800609,1,1,0.711776362674,190.301152952,1,1,2.47560563938,5,6.0,32,bw,99.7831884908,2019_may_09_1652,004,256,20,5,iñaki,Experiment_EEG_version,20,
Nonliving_Things,../experiment_stimuli/bw_bc_bl/Nonliving_Things/Vehicles/ship_12.jpg,Vehicles,0,ship,0,37,37,76,194.509635462,nV_V,1,194.525645026,195.822393842,1,1,0.801966025907,196.644920697,2,0,1.08257239066,5,6.0,32,bw,99.7831884908,2019_may_09_1652,004,256,20,5,iñaki,Experiment_EEG_version,20,
Nonliving_Things,../experiment_stimuli/bw_bc_bl/Nonliving_Things/Furniture/filling-cabinet_20.jpg,Furniture,0,filling-cabinet,0,38,38,29,199.460400661,V_nV,2,199.479942675,200.763130624,1,2,0.822016385373,201.605700264,2,0,0.76187395347,5,6.0,32,bw,99.7831884908,2019_may_09_1652,004,256,20,5,iñaki,Experiment_EEG_version,20,
Nonliving_Things,../experiment_stimuli/bw_bc_bl/Nonliving_Things/Furniture/rocking-chair_10.jpg,Furniture,0,rocking-chair,0,39,39,69,204.100523595,nV_V,1,204.11314223,205.383178413,1,1,2.68606899758,208.089807846,2,0,0.902203056527,5,7.5,32,bw,99.7831884908,2019_may_09_1652,004,256,20,5,iñaki,Experiment_EEG_version,20,
Living_Things,../experiment_stimuli/bw_bc_bl/Living_Things/Animals/cow_1.jpg,Animals,0,cow,0,40,40,20,210.724885686,nV_V,2,210.745973501,212.007576493,0,1,5.3017660968,217.329923216,1,1,0.511334030305,5,6.0,32,bw,99.7831884908,2019_may_09_1652,004,256,20,5,iñaki,Experiment_EEG_version,20,
Living_Things,../experiment_stimuli/bw_bc_bl/Living_Things/Birds/ostrich_19.jpg,Birds,0,ostrich,0,41,41,56,219.574125609,nV_V,2,219.593832749,220.866834566,0,1,0.451204887864,221.338607422,1,1,0.501308997005,5,6.5,32,bw,99.7831884908,2019_may_09_1652,004,256,20,5,iñaki,Experiment_EEG_version,20,
Nonliving_Things,../experiment_stimuli/bw_bc_bl/Nonliving_Things/Furniture/bed_5.jpg,Furniture,0,bed,0,42,42,5,223.572816128,V_nV,2,223.577883744,224.885571489,1,2,1.65383187495,226.559957122,1,1,0.82203727229,5,6.0,32,bw,99.7831884908,2019_may_09_1652,004,256,20,5,iñaki,Experiment_EEG_version,20,
Living_Things,../experiment_stimuli/bw_bc_bl/Living_Things/Animals/tiger_20.jpg,Animals,0,tiger,0,43,43,84,229.114871919,V_nV,1,229.132623266,230.457696402,1,1,0.822007592444,231.300271124,3,0,0.581485995546,5,6.0,32,bw,99.7831884908,2019_may_09_1652,004,256,20,5,iñaki,Experiment_EEG_version,20,
Living_Things,../experiment_stimuli/bw_bc_bl/Living_Things/Insects/ladybird_2.jpg,Insects,0,ladybird,0,44,44,45,233.61465046,V_nV,1,233.644150628,234.937433106,1,1,1.9143911394,236.872371519,2,0,0.781927873215,5,6.5,32,bw,99.7831884908,2019_may_09_1652,004,256,20,5,iñaki,Experiment_EEG_version,20,
Nonliving_Things,../experiment_stimuli/bw_bc_bl/Nonliving_Things/Buildings/castle_12.jpg,Buildings,0,castle,0,45,45,12,239.387186443,V_nV,2,239.406571966,240.689920703,1,2,1.94445449081,242.65493517,1,1,0.872125889711,5,6.5,32,bw,99.7831884908,2019_may_09_1652,004,256,20,5,iñaki,Experiment_EEG_version,20,
Living_Things,../experiment_stimuli/bw_bc_bl/Living_Things/Insects/butterfly_2.jpg,Insects,0,butterfly,0,46,46,10,245.259955373,V_nV,1,245.290222467,246.592753884,1,1,1.23291040658,247.846258616,3,0,1.75404962729,5,6.0,32,bw,99.7831884908,2019_may_09_1652,004,256,20,5,iñaki,Experiment_EEG_version,20,
Nonliving_Things,../experiment_stimuli/bw_bc_bl/Nonliving_Things/Vehicles/boat_9.jpg,Vehicles,0,boat,0,47,47,7,251.333157742,nV_V,1,251.350005486,252.635891701,1,1,1.45338885444,254.109824344,1,1,0.932249509853,5,6.0,32,bw,99.7831884908,2019_may_09_1652,004,256,20,5,iñaki,Experiment_EEG_version,20,
Nonliving_Things,../experiment_stimuli/bw_bc_bl/Nonliving_Things/Musical_Inst/guitar_16.jpg,Musical_Inst,0,guitar,0,48,48,36,256.774982487,V_nV,2,256.794996941,258.087747367,1,2,2.20504392024,260.3133715,3,0,0.801962533298,5,6.5,32,bw,99.7831884908,2019_may_09_1652,004,256,20,5,iñaki,Experiment_EEG_version,20,
Nonliving_Things,../experiment_stimuli/bw_bc_bl/Nonliving_Things/Furniture/table_24.jpg,Furniture,0,table,0,49,49,81,262.848186946,nV_V,1,262.8722145,264.150925262,0,2,0.872128006044,265.04361838,2,0,1.77409632909,5,7.5,32,bw,99.7831884908,2019_may_09_1652,004,256,20,5,iñaki,Experiment_EEG_version,20,
Living_Things,../experiment_stimuli/bw_bc_bl/Living_Things/Animals/turtle_11.jpg,Animals,0,turtle,0,50,50,90,268.550597933,nV_V,2,268.560348699,269.823253342,1,2,1.65383131462,271.497647516,3,0,0.681701932304,5,6.5,32,bw,99.7831884908,2019_may_09_1652,004,256,20,5,iñaki,Experiment_EEG_version,20,
Living_Things,../experiment_stimuli/bw_bc_bl/Living_Things/Birds/penguin_22.jpg,Birds,0,penguin,0,51,51,61,273.912248266,nV_V,2,273.934663013,275.164862815,0,1,0.451227248088,275.636661062,1,1,0.621573756194,5,6.5,32,bw,99.7831884908,2019_may_09_1652,004,256,20,5,iñaki,Experiment_EEG_version,20,
Living_Things,../experiment_stimuli/bw_bc_bl/Living_Things/Birds/sparrow_8.jpg,Birds,0,sparrow,0,52,52,79,277.991107933,nV_V,2,278.007701797,279.253755703,0,1,9.2202703087,288.494571733,1,1,0.751860273753,5,6.0,32,bw,99.7831884908,2019_may_09_1652,004,256,20,5,iñaki,Experiment_EEG_version,20,
Living_Things,../experiment_stimuli/bw_bc_bl/Living_Things/Birds/owl_0.jpg,Birds,0,owl,0,53,53,57,290.979338151,V_nV,1,290.997162374,292.262033905,1,1,0.932252547045,293.214845872,2,0,0.591522923409,5,6.0,32,bw,99.7831884908,2019_may_09_1652,004,256,20,5,iñaki,Experiment_EEG_version,20,
Nonliving_Things,../experiment_stimuli/bw_bc_bl/Nonliving_Things/Buildings/house_19.jpg,Buildings,0,house,0,54,54,41,295.539263632,nV_V,1,295.569303018,296.821942822,1,1,1.15272669815,297.995208256,1,1,0.812011464928,5,6.0,32,bw,99.7831884908,2019_may_09_1652,004,256,20,5,iñaki,Experiment_EEG_version,20,
Living_Things,../experiment_stimuli/bw_bc_bl/Living_Things/Marine_creatures/dolphin_19.jpg,Marine_creatures,0,dolphin,0,55,55,23,300.540122429,V_nV,1,300.555823227,301.822812304,1,1,1.81416149214,303.657531742,1,1,0.882138855153,5,6.0,32,bw,99.7831884908,2019_may_09_1652,004,256,20,5,iñaki,Experiment_EEG_version,20,
Living_Things,../experiment_stimuli/bw_bc_bl/Living_Things/Animals/zebra_23.jpg,Animals,0,zebra,0,56,56,95,306.272588317,nV_V,2,306.295874615,307.585337678,1,2,1.0926010741,308.69848451,3,0,1.21285883303,5,6.0,32,bw,99.7831884908,2019_may_09_1652,004,256,20,5,iñaki,Experiment_EEG_version,20,
Nonliving_Things,../experiment_stimuli/bw_bc_bl/Nonliving_Things/Musical_Inst/tuba_9.jpg,Musical_Inst,0,tuba,0,57,57,89,311.644259973,nV_V,1,311.669137312,312.946993477,1,1,9.82157675006,322.789118339,1,1,0.721788377181,5,6.5,32,bw,99.7831884908,2019_may_09_1652,004,256,20,5,iñaki,Experiment_EEG_version,20,
Nonliving_Things,../experiment_stimuli/bw_bc_bl/Nonliving_Things/Vehicles/plane_8.jpg,Vehicles,0,plane,0,58,58,64,325.243815285,V_nV,2,325.26285416,326.566596766,0,1,0.0303005248752,326.617454045,1,1,1.47327312999,5,6.0,32,bw,99.7831884908,2019_may_09_1652,004,256,20,5,iñaki,Experiment_EEG_version,20,
Living_Things,../experiment_stimuli/bw_bc_bl/Living_Things/Insects/scorpion_24.jpg,Insects,0,scorpion,0,59,59,73,329.823776581,nV_V,2,329.859202784,331.186651337,1,2,1.07256541367,332.279770806,2,0,0.711772580773,5,6.0,32,bw,99.7831884908,2019_may_09_1652,004,256,20,5,iñaki,Experiment_EEG_version,20,
Nonliving_Things,../experiment_stimuli/bw_bc_bl/Nonliving_Things/Buildings/palace_13.jpg,Buildings,0,palace,0,60,60,58,334.724426918,V_nV,2,334.762265268,336.077272871,0,1,0.832034106565,336.929872367,2,0,0.902181293503,5,7.5,32,bw,99.7831884908,2019_may_09_1652,004,256,20,5,iñaki,Experiment_EEG_version,20,
Living_Things,../experiment_stimuli/bw_bc_bl/Living_Things/Marine_creatures/shark_13.jpg,Marine_creatures,0,shark,0,61,61,75,339.564953843,nV_V,2,339.582340008,340.887737312,1,2,0.872125213029,341.780414114,2,0,0.882169117878,5,6.5,32,bw,99.7831884908,2019_may_09_1652,004,256,20,5,iñaki,Experiment_EEG_version,20,
Living_Things,../experiment_stimuli/bw_bc_bl/Living_Things/Birds/goose_8.jpg,Birds,0,goose,0,62,62,34,344.395451614,nV_V,2,344.414305198,345.708211445,0,1,4.78061860195,350.509377252,1,1,0.621570425057,5,6.0,32,bw,99.7831884908,2019_may_09_1652,004,256,20,5,iñaki,Experiment_EEG_version,20,
Nonliving_Things,../experiment_stimuli/bw_bc_bl/Nonliving_Things/Kitchen_Uten/pot_21.jpg,Kitchen_Uten,0,pot,0,63,63,66,352.863860822,V_nV,2,352.879089082,354.196661415,1,2,0.681708778247,354.898921399,3,0,0.391093030532,5,7.0,32,bw,99.7831884908,2019_may_09_1652,004,256,20,5,iñaki,Experiment_EEG_version,20,
Living_Things,../experiment_stimuli/bw_bc_bl/Living_Things/Birds/duck_17.jpg,Birds,0,duck,0,64,64,26,357.022901164,V_nV,1,357.045717026,358.325634838,1,1,1.22288242632,359.569066775,2,0,0.69172903682,5,6.0,32,bw,99.7831884908,2019_may_09_1652,004,256,20,5,iñaki,Experiment_EEG_version,20,
Nonliving_Things,../experiment_stimuli/bw_bc_bl/Nonliving_Things/Vehicles/van_3.jpg,Vehicles,0,van,0,65,65,91,361.993707847,nV_V,1,362.023220624,363.296456265,1,1,0.962318082808,364.289330579,3,0,0.98235238593,5,6.0,32,bw,99.7831884908,2019_may_09_1652,004,256,20,5,iñaki,Experiment_EEG_version,20,
Living_Things,../experiment_stimuli/bw_bc_bl/Living_Things/Marine_creatures/whale_13.jpg,Marine_creatures,0,whale,0,66,66,94,367.00459561,V_nV,1,367.02372058,368.277272996,1,1,0.952140281199,369.24997081,3,0,0.791949413901,5,6.0,32,bw,99.7831884908,2019_may_09_1652,004,256,20,5,iñaki,Experiment_EEG_version,20,
Living_Things,../experiment_stimuli/bw_bc_bl/Living_Things/Birds/pelican_21.jpg,Birds,0,pelican,0,67,67,60,371.77497425,V_nV,1,371.797359899,373.017569409,1,1,0.912211774266,373.950347373,1,1,0.551519627717,5,6.0,32,bw,99.7831884908,2019_may_09_1652,004,256,20,5,iñaki,Experiment_EEG_version,20,
Living_Things,../experiment_stimuli/bw_bc_bl/Living_Things/Birds/hummingbird_14.jpg,Birds,0,hummingbird,0,68,68,42,376.234664391,V_nV,1,376.258640811,377.507331281,1,1,1.40327790293,378.931155954,2,0,0.571468845774,5,6.0,32,bw,99.7831884908,2019_may_09_1652,004,256,20,5,iñaki,Experiment_EEG_version,20,
Nonliving_Things,../experiment_stimuli/bw_bc_bl/Nonliving_Things/Kitchen_Uten/small-saucepan_19.jpg,Kitchen_Uten,0,small-saucepan,0,69,69,77,381.235537497,V_nV,2,381.261181803,382.498185444,1,2,6.86518155988,389.383918364,1,1,0.531402378412,5,6.5,32,bw,99.7831884908,2019_may_09_1652,004,256,20,5,iñaki,Experiment_EEG_version,20,
Living_Things,../experiment_stimuli/bw_bc_bl/Living_Things/Animals/hippopotamus_13.jpg,Animals,0,hippopotamus,0,70,70,39,391.64816509,nV_V,2,391.664687124,392.920840788,1,2,0.721797715392,393.663188303,2,0,0.481268946023,5,6.0,32,bw,99.7831884908,2019_may_09_1652,004,256,20,5,iñaki,Experiment_EEG_version,20,
Nonliving_Things,../experiment_stimuli/bw_bc_bl/Nonliving_Things/Musical_Inst/drum_4.jpg,Musical_Inst,0,drum,0,71,71,25,395.877365217,nV_V,1,395.897549492,397.140018999,1,1,0.431185896372,397.591739371,1,1,0.972334443115,5,6.5,32,bw,99.7831884908,2019_may_09_1652,004,256,20,5,iñaki,Experiment_EEG_version,20,
Nonliving_Things,../experiment_stimuli/bw_bc_bl/Nonliving_Things/Kitchen_Uten/teapot_13.jpg,Kitchen_Uten,0,teapot,0,72,72,83,400.297000008,nV_V,1,400.325115661,401.599701328,1,1,1.37321384871,402.993455206,1,1,0.92224842752,5,6.0,32,bw,99.7831884908,2019_may_09_1652,004,256,20,5,iñaki,Experiment_EEG_version,20,
Living_Things,../experiment_stimuli/bw_bc_bl/Living_Things/Birds/barn-owl_17.jpg,Birds,0,barn-owl,0,73,73,4,405.648602199,nV_V,2,405.672077107,406.981413611,1,2,0.771908884943,407.773869247,3,0,0.811988724472,5,7.5,32,bw,99.7831884908,2019_may_09_1652,004,256,20,5,iñaki,Experiment_EEG_version,20,
Nonliving_Things,../experiment_stimuli/bw_bc_bl/Nonliving_Things/Musical_Inst/piano__2.jpg,Musical_Inst,0,piano,0,74,74,62,410.318751079,V_nV,2,410.33619081,411.611466828,0,1,1.02244990584,412.654489217,2,0,1.24292564303,5,6.0,32,bw,99.7831884908,2019_may_09_1652,004,256,20,5,iñaki,Experiment_EEG_version,20,
Nonliving_Things,../experiment_stimuli/bw_bc_bl/Nonliving_Things/Furniture/bookcase_4.jpg,Furniture,0,bookcase,0,75,75,8,415.630303626,nV_V,1,415.642959249,416.902965328,1,1,1.24293842874,418.166476548,2,0,0.73183755657,5,6.0,32,bw,99.7831884908,2019_may_09_1652,004,256,20,5,iñaki,Experiment_EEG_version,20,
Living_Things,../experiment_stimuli/bw_bc_bl/Living_Things/Marine_creatures/lobster_17.jpg,Marine_creatures,0,lobster,0,76,76,49,420.631165468,V_nV,1,420.645643381,421.903835512,1,1,0.601556418454,422.525955103,1,1,1.07258038338,5,6.0,32,bw,99.7831884908,2019_may_09_1652,004,256,20,5,iñaki,Experiment_EEG_version,20,
Living_Things,../experiment_stimuli/bw_bc_bl/Living_Things/Animals/giraffe_21.jpg,Animals,0,giraffe,0,77,77,32,425.331382158,V_nV,1,425.352867546,426.614077803,1,1,0.691577509093,427.326235581,2,0,0.852072090269,5,6.0,32,bw,99.7831884908,2019_may_09_1652,004,256,20,5,iñaki,Experiment_EEG_version,20,
Living_Things,../experiment_stimuli/bw_bc_bl/Living_Things/Animals/tapir_1.jpg,Animals,0,tapir,0,78,78,82,429.911342709,V_nV,1,429.930366737,431.194032534,0,2,10.7335513584,441.948168492,1,1,1.19281571764,5,6.0,32,bw,99.7831884908,2019_may_09_1652,004,256,20,5,iñaki,Experiment_EEG_version,20,
Living_Things,../experiment_stimuli/bw_bc_bl/Living_Things/Birds/partridge_19.jpg,Birds,0,partridge,0,79,79,59,444.873864877,nV_V,2,444.887204171,446.176599521,1,2,0.76188685948,446.959040267,2,0,0.952293801736,5,6.0,32,bw,99.7831884908,2019_may_09_1652,004,256,20,5,iñaki,Experiment_EEG_version,20,
Nonliving_Things,../experiment_stimuli/bw_bc_bl/Nonliving_Things/Tools/axe_14.jpg,Tools,0,axe,0,80,80,3,449.644240408,nV_V,1,449.674775986,450.956994239,1,1,0.731818117178,451.709362934,1,1,0.681710921075,5,8.0,32,bw,99.7831884908,2019_may_09_1652,004,256,20,5,iñaki,Experiment_EEG_version,20,
Nonliving_Things,../experiment_stimuli/bw_bc_bl/Nonliving_Things/Kitchen_Uten/saucepan_20.jpg,Kitchen_Uten,0,saucepan,0,81,81,71,454.124006461,nV_V,1,454.152515001,455.45677354,1,1,0.591509840531,456.068838424,3,0,0.541395720076,5,6.0,32,bw,99.7831884908,2019_may_09_1652,004,256,20,5,iñaki,Experiment_EEG_version,20,
Living_Things,../experiment_stimuli/bw_bc_bl/Living_Things/Marine_creatures/manatee_10.jpg,Marine_creatures,0,manatee,0,82,82,52,458.343147616,nV_V,2,458.359492664,459.635858866,1,2,1.24292991364,460.899365274,3,0,1.26296641616,5,6.0,32,bw,99.7831884908,2019_may_09_1652,004,256,20,5,iñaki,Experiment_EEG_version,20,
Living_Things,../experiment_stimuli/bw_bc_bl/Living_Things/Insects/dragonfly_25.jpg,Insects,0,dragonfly,0,83,83,24,463.895216331,nV_V,2,463.916177644,465.167902428,1,2,1.50349540751,466.691944507,3,0,1.45337349018,5,7.5,32,bw,99.7831884908,2019_may_09_1652,004,256,20,5,iñaki,Experiment_EEG_version,20,
Living_Things,../experiment_stimuli/bw_bc_bl/Living_Things/Marine_creatures/sperm-whale_15.jpg,Marine_creatures,0,sperm-whale,0,84,84,80,469.888244085,nV_V,2,469.903104451,471.140870566,0,1,4.27953102641,475.44095114,1,1,0.48125800991,5,6.5,32,bw,99.7831884908,2019_may_09_1652,004,256,20,5,iñaki,Experiment_EEG_version,20,
Living_Things,../experiment_stimuli/bw_bc_bl/Living_Things/Birds/pigeon_15.jpg,Birds,0,pigeon,0,85,85,63,477.655125535,nV_V,2,477.668662992,478.937819233,1,2,0.701753949819,479.660115761,3,0,0.812005434938,5,8.0,32,bw,99.7831884908,2019_may_09_1652,004,256,20,5,iñaki,Experiment_EEG_version,20,
Nonliving_Things,../experiment_stimuli/bw_bc_bl/Nonliving_Things/Furniture/lamp_4.jpg,Furniture,0,lamp,0,86,86,46,482.205021998,V_nV,2,482.220242908,483.457642111,0,1,0.190492136524,483.668698103,1,1,0.68170768052,5,6.5,32,bw,99.7831884908,2019_may_09_1652,004,256,20,5,iñaki,Experiment_EEG_version,20,
Living_Things,../experiment_stimuli/bw_bc_bl/Living_Things/Animals/lynx_2.jpg,Animals,0,lynx,0,87,87,50,486.083447427,V_nV,1,486.099972912,487.376173041,1,1,1.23290585777,488.629616695,1,1,0.972178670911,5,6.5,32,bw,99.7831884908,2019_may_09_1652,004,256,20,5,iñaki,Experiment_EEG_version,20,
Living_Things,../experiment_stimuli/bw_bc_bl/Living_Things/Birds/goldfinch_6.jpg,Birds,0,goldfinch,0,88,88,33,491.334863527,nV_V,2,491.357227658,492.657643022,0,1,0.661658651863,493.339873763,1,1,3.1671072738,5,7.5,32,bw,99.7831884908,2019_may_09_1652,004,256,20,5,iñaki,Experiment_EEG_version,20,
Nonliving_Things,../experiment_stimuli/bw_bc_bl/Nonliving_Things/Furniture/couch_25.jpg,Furniture,0,couch,0,89,89,19,498.239871644,nV_V,1,498.26173497,499.572670887,1,1,1.13271112014,500.72593675,3,0,1.0625459331,5,6.0,32,bw,99.7831884908,2019_may_09_1652,004,256,20,5,iñaki,Experiment_EEG_version,20,
Nonliving_Things,../experiment_stimuli/bw_bc_bl/Nonliving_Things/Musical_Inst/trumpet_7.jpg,Musical_Inst,0,trumpet,0,90,90,88,503.521346032,V_nV,2,503.556492656,504.854159305,1,2,10.5531691558,515.427881102,1,1,0.781930087289,5,7.5,32,bw,99.7831884908,2019_may_09_1652,004,256,20,5,iñaki,Experiment_EEG_version,20,
Nonliving_Things,../experiment_stimuli/bw_bc_bl/Nonliving_Things/Vehicles/train_13.jpg,Vehicles,0,train,0,91,91,87,517.942697989,V_nV,2,517.962978544,519.28552284,1,2,1.28301705382,520.589085554,3,0,1.18279300046,5,6.5,32,bw,99.7831884908,2019_may_09_1652,004,256,20,5,iñaki,Experiment_EEG_version,20,
Nonliving_Things,../experiment_stimuli/bw_bc_bl/Nonliving_Things/Kitchen_Uten/coking-pot_13.jpg,Kitchen_Uten,0,coking-pot,0,92,92,18,523.504790447,V_nV,2,523.52654161,524.827573962,1,2,1.27283511693,526.120955924,3,0,1.28301444125,5,6.0,32,bw,99.7831884908,2019_may_09_1652,004,256,20,5,iñaki,Experiment_EEG_version,20,
Living_Things,../experiment_stimuli/bw_bc_bl/Living_Things/Animals/elephant_17.jpg,Animals,0,elephant,0,93,93,27,529.137039597,nV_V,2,529.159854075,530.429748226,1,2,0.942274392417,531.39257078,3,0,1.89436663313,5,6.0,32,bw,99.7831884908,2019_may_09_1652,004,256,20,5,iñaki,Experiment_EEG_version,20,
Living_Things,../experiment_stimuli/bw_bc_bl/Living_Things/Marine_creatures/narwhal_20.jpg,Marine_creatures,0,narwhal,0,94,94,55,535.019818614,V_nV,1,535.036569193,536.282479899,0,2,6.87516646199,543.178208348,1,1,0.651637389368,5,7.5,32,bw,99.7831884908,2019_may_09_1652,004,256,20,5,iñaki,Experiment_EEG_version,20,
Living_Things,../experiment_stimuli/bw_bc_bl/Living_Things/Birds/magpie_1.jpg,Birds,0,magpie,0,95,95,51,545.562749627,V_nV,1,545.584633306,546.855465692,1,1,0.751870333757,547.627867829,2,0,0.581476495503,5,6.5,32,bw,99.7831884908,2019_may_09_1652,004,256,20,5,iñaki,Experiment_EEG_version,20,
