category,probe_path,subcategory,fixation_duration,label,trials.thisRepN,trials.thisTrialN,trials.thisN,trials.thisIndex,image_onset_time,response_window,correctAns,probe_onset,discrim_resptime,response.corr,response.keys,response.rt,visible_resptime,visible.keys,visible.corr,visible.rt,probeFrames,jitter2,n_square,experiment_color,frameRate,date,session,image_size,premask_dur,probeFrames,participant,expName,postmask_dur,
Living_Things,../experiment_stimuli/bw_bc_bl/Living_Things/Animals/elephant_18.jpg,Animals,0,elephant,0,0,0,27,3.71728156391,nV_V,2,3.73834897997,4.99993650615,0,1,4.31961135473,9.35038788919,1,1,3.49782316503,5,7.0,32,bw,99.7832856877,2019_may_21_1623,003,256,20,5,ana,Experiment_EEG_version,20,
Living_Things,../experiment_stimuli/bw_bc_bl/Living_Things/Birds/rooster_25.jpg,Birds,0,rooster,0,1,1,70,14.5808702891,nV_V,2,14.5857136745,15.8835950266,1,2,1.74401916959,17.6481546992,3,0,0.371037870646,5,6.0,32,bw,99.7832856877,2019_may_21_1623,003,256,20,5,ana,Experiment_EEG_version,20,
Nonliving_Things,../experiment_stimuli/bw_bc_bl/Nonliving_Things/Furniture/table_1.jpg,Furniture,0,table,0,2,2,81,19.7521026689,V_nV,2,19.7569182841,21.0247695365,1,2,1.80431778752,22.8496418302,3,0,0.310911750421,5,6.0,32,bw,99.7832856877,2019_may_21_1623,003,256,20,5,ana,Experiment_EEG_version,20,
Nonliving_Things,../experiment_stimuli/bw_bc_bl/Nonliving_Things/Furniture/Chest-of-drawers_12.jpg,Furniture,0,Chest-of-drawers,0,3,3,0,24.8932822011,V_nV,2,24.8981395899,26.1358861872,1,2,0.771917820908,26.9283543716,3,0,0.371019366663,5,6.0,32,bw,99.7832856877,2019_may_21_1623,003,256,20,5,ana,Experiment_EEG_version,20,
Living_Things,../experiment_stimuli/bw_bc_bl/Living_Things/Animals/rhino_12.jpg,Animals,0,rhino,0,4,4,68,29.0322773457,nV_V,2,29.0378755697,30.264857881,1,2,1.21288306196,31.4983141711,3,0,0.270807422465,5,6.0,32,bw,99.7832856877,2019_may_21_1623,003,256,20,5,ana,Experiment_EEG_version,20,
Nonliving_Things,../experiment_stimuli/bw_bc_bl/Nonliving_Things/Musical_Inst/piano__19.jpg,Musical_Inst,0,piano,0,5,5,62,33.502006806,nV_V,1,33.5068473192,34.7345718681,1,1,0.721795317018,35.4769250934,1,1,0.290850706864,5,6.5,32,bw,99.7832856877,2019_may_21_1623,003,256,20,5,ana,Experiment_EEG_version,20,
Nonliving_Things,../experiment_stimuli/bw_bc_bl/Nonliving_Things/Musical_Inst/guitar_10.jpg,Musical_Inst,0,guitar,0,6,6,36,37.500702125,V_nV,2,37.5055765701,38.7633385535,1,2,0.771902557695,39.5557720165,3,0,0.391068955651,5,6.5,32,bw,99.7832856877,2019_may_21_1623,003,256,20,5,ana,Experiment_EEG_version,20,
Nonliving_Things,../experiment_stimuli/bw_bc_bl/Nonliving_Things/Vehicles/motorbike_16.jpg,Vehicles,0,motorbike,0,7,7,54,41.6797696955,nV_V,1,41.6847257596,42.922370798,1,1,0.882143268827,43.8250505356,3,0,0.230730958749,5,6.5,32,bw,99.7832856877,2019_may_21_1623,003,256,20,5,ana,Experiment_EEG_version,20,
Living_Things,../experiment_stimuli/bw_bc_bl/Living_Things/Birds/barn-owl_10.jpg,Birds,0,barn-owl,0,8,8,4,45.7887026274,nV_V,2,45.7935328626,47.0212824261,1,2,1.39324908401,48.4350749792,1,1,0.230715496233,5,6.5,32,bw,99.7832856877,2019_may_21_1623,003,256,20,5,ana,Experiment_EEG_version,20,
Living_Things,../experiment_stimuli/bw_bc_bl/Living_Things/Birds/hen_15.jpg,Birds,0,hen,0,9,9,38,50.3987199548,V_nV,1,50.4035757084,51.6613689505,1,1,0.721796512371,52.403709898,3,0,0.290862052469,5,6.0,32,bw,99.7832856877,2019_may_21_1623,003,256,20,5,ana,Experiment_EEG_version,20,
Nonliving_Things,../experiment_stimuli/bw_bc_bl/Nonliving_Things/Furniture/sofa_22.jpg,Furniture,0,sofa,0,10,10,78,54.4274810047,V_nV,2,54.4327852521,55.6700872502,1,2,0.79194930871,56.4825695201,3,0,0.411117115989,5,6.5,32,bw,99.7832856877,2019_may_21_1623,003,256,20,5,ana,Experiment_EEG_version,20,
Living_Things,../experiment_stimuli/bw_bc_bl/Living_Things/Animals/zebra_18.jpg,Animals,0,zebra,0,11,11,95,58.6266082427,V_nV,1,58.632552838,59.8591904815,1,1,0.801966886967,60.6817836254,3,0,0.290852447273,5,6.0,32,bw,99.7832856877,2019_may_21_1623,003,256,20,5,ana,Experiment_EEG_version,20,
Living_Things,../experiment_stimuli/bw_bc_bl/Living_Things/Animals/lynx_26.jpg,Animals,0,lynx,0,12,12,50,62.7054744926,nV_V,2,62.7114499933,63.9380537611,1,2,0.0703783489298,64.0289853502,1,1,0.270809260663,5,6.0,32,bw,99.7832856877,2019_may_21_1623,003,256,20,5,ana,Experiment_EEG_version,20,
Living_Things,../experiment_stimuli/bw_bc_bl/Living_Things/Marine_creatures/shark_10.jpg,Marine_creatures,0,shark,0,13,13,75,66.0327159618,nV_V,2,66.0375885048,67.2753126507,0,1,0.711780310143,68.0076506177,2,0,0.180607214337,5,7.5,32,bw,99.7832856877,2019_may_21_1623,003,256,20,5,ana,Experiment_EEG_version,20,
Nonliving_Things,../experiment_stimuli/bw_bc_bl/Nonliving_Things/Furniture/rocking-chair_25.jpg,Furniture,0,rocking-chair,0,14,14,69,69.9211632432,V_nV,2,69.9261838594,71.1537413164,1,2,0.852134183049,72.026416935,3,0,0.230718838517,5,8.0,32,bw,99.7832856877,2019_may_21_1623,003,256,20,5,ana,Experiment_EEG_version,20,
Nonliving_Things,../experiment_stimuli/bw_bc_bl/Nonliving_Things/Musical_Inst/trumpet_16.jpg,Musical_Inst,0,trumpet,0,15,15,88,73.9900056291,nV_V,1,73.9949844636,75.2225848301,1,1,0.922225901159,76.1653958126,2,0,0.340970650548,5,6.0,32,bw,99.7832856877,2019_may_21_1623,003,256,20,5,ana,Experiment_EEG_version,20,
Living_Things,../experiment_stimuli/bw_bc_bl/Living_Things/Marine_creatures/dolphin_23.jpg,Marine_creatures,0,dolphin,0,16,16,23,78.2392467775,nV_V,2,78.2440401183,79.4718247904,0,1,0.872119111475,80.3645045436,2,0,0.200655017048,5,6.0,32,bw,99.7832856877,2019_may_21_1623,003,256,20,5,ana,Experiment_EEG_version,20,
Nonliving_Things,../experiment_stimuli/bw_bc_bl/Nonliving_Things/Kitchen_Uten/cup_4.jpg,Kitchen_Uten,0,cup,0,17,17,22,82.298069055,V_nV,2,82.3034641577,83.5306462031,1,2,0.330959673738,83.8821767778,1,1,0.280822564615,5,6.0,32,bw,99.7832856877,2019_may_21_1623,003,256,20,5,ana,Experiment_EEG_version,20,
Nonliving_Things,../experiment_stimuli/bw_bc_bl/Nonliving_Things/Musical_Inst/violin_10.jpg,Musical_Inst,0,violin,0,18,18,92,85.8958903106,V_nV,2,85.9015629096,87.1485107471,1,2,0.791953740874,87.9610184792,3,0,0.280845432542,5,6.0,32,bw,99.7832856877,2019_may_21_1623,003,256,20,5,ana,Experiment_EEG_version,20,
Living_Things,../experiment_stimuli/bw_bc_bl/Living_Things/Marine_creatures/sperm-whale_13.jpg,Marine_creatures,0,sperm-whale,0,19,19,80,89.9747662293,V_nV,1,89.9796170245,91.2073400356,0,2,0.832033738261,92.0599127994,3,0,0.381050410913,5,7.0,32,bw,99.7832856877,2019_may_21_1623,003,256,20,5,ana,Experiment_EEG_version,20,
Nonliving_Things,../experiment_stimuli/bw_bc_bl/Nonliving_Things/Musical_Inst/saxophone_10.jpg,Musical_Inst,0,saxophone,0,20,20,72,94.1738860731,V_nV,2,94.1788056789,95.4064634917,0,1,0.58149058558,96.0085269711,1,1,0.29085729667,5,6.5,32,bw,99.7832856877,2019_may_21_1623,003,256,20,5,ana,Experiment_EEG_version,20,
Nonliving_Things,../experiment_stimuli/bw_bc_bl/Nonliving_Things/Vehicles/train_11.jpg,Vehicles,0,train,0,21,21,87,98.0322746269,nV_V,1,98.0371477939,99.2949255966,1,1,4.74053915334,104.056017441,2,0,0.822007024661,5,6.0,32,bw,99.7832856877,2019_may_21_1623,003,256,20,5,ana,Experiment_EEG_version,20,
Nonliving_Things,../experiment_stimuli/bw_bc_bl/Nonliving_Things/Buildings/factory_18.jpg,Buildings,0,factory,0,22,22,28,106.610918809,nV_V,1,106.615793562,107.863548114,0,2,0.371033313917,108.255119051,1,1,0.230720086722,5,6.5,32,bw,99.7832856877,2019_may_21_1623,003,256,20,5,ana,Experiment_EEG_version,20,
Living_Things,../experiment_stimuli/bw_bc_bl/Living_Things/Animals/tapir_15.jpg,Animals,0,tapir,0,23,23,82,110.218760605,V_nV,1,110.223667779,111.49143215,0,2,2.9767049856,114.488699044,2,0,0.340959643479,5,6.0,32,bw,99.7832856877,2019_may_21_1623,003,256,20,5,ana,Experiment_EEG_version,20,
Living_Things,../experiment_stimuli/bw_bc_bl/Living_Things/Animals/tiger_2.jpg,Animals,0,tiger,0,24,24,84,116.562556749,V_nV,1,116.567520392,117.825207177,1,1,0.882178884465,118.727960515,2,0,0.280677401228,5,6.0,32,bw,99.7832856877,2019_may_21_1623,003,256,20,5,ana,Experiment_EEG_version,20,
Nonliving_Things,../experiment_stimuli/bw_bc_bl/Nonliving_Things/Vehicles/bus_18.jpg,Vehicles,0,bus,0,25,25,9,120.741640981,V_nV,2,120.747225449,121.994263342,1,2,0.51135078189,122.526175566,3,0,0.260788783897,5,6.5,32,bw,99.7832856877,2019_may_21_1623,003,256,20,5,ana,Experiment_EEG_version,20,
Living_Things,../experiment_stimuli/bw_bc_bl/Living_Things/Birds/seagull_2.jpg,Birds,0,seagull,0,26,26,74,124.519853804,nV_V,2,124.524837307,125.75243129,0,1,0.972365950001,126.755377472,3,0,0.260782874189,5,6.0,32,bw,99.7832856877,2019_may_21_1623,003,256,20,5,ana,Experiment_EEG_version,20,
Nonliving_Things,../experiment_stimuli/bw_bc_bl/Nonliving_Things/Vehicles/ship_6.jpg,Vehicles,0,ship,0,27,27,76,128.7490459,nV_V,1,128.75537093,129.981627372,0,2,0.581516536418,130.58369567,1,1,0.200675596017,5,6.5,32,bw,99.7832856877,2019_may_21_1623,003,256,20,5,ana,Experiment_EEG_version,20,
Nonliving_Things,../experiment_stimuli/bw_bc_bl/Nonliving_Things/Buildings/palace_11.jpg,Buildings,0,palace,0,28,28,58,132.517242547,nV_V,1,132.522256682,133.779883054,1,1,0.551420989912,134.35187246,2,0,0.310895043891,5,6.5,32,bw,99.7832856877,2019_may_21_1623,003,256,20,5,ana,Experiment_EEG_version,20,
Nonliving_Things,../experiment_stimuli/bw_bc_bl/Nonliving_Things/Kitchen_Uten/coking-pot_12.jpg,Kitchen_Uten,0,coking-pot,0,29,29,18,136.39566931,nV_V,1,136.400494557,137.648293209,1,1,0.671527224826,138.340380008,3,0,0.19062218722,5,7.0,32,bw,99.7832856877,2019_may_21_1623,003,256,20,5,ana,Experiment_EEG_version,20,
Living_Things,../experiment_stimuli/bw_bc_bl/Living_Things/Birds/duck_25.jpg,Birds,0,duck,0,30,30,26,140.264084014,V_nV,1,140.26902189,141.496657508,0,2,0.501314718742,142.018529933,1,1,0.190635826206,5,6.0,32,bw,99.7832856877,2019_may_21_1623,003,256,20,5,ana,Experiment_EEG_version,20,
Nonliving_Things,../experiment_stimuli/bw_bc_bl/Nonliving_Things/Furniture/chair_17.jpg,Furniture,0,chair,0,31,31,15,143.942073862,nV_V,1,143.948734687,145.194725362,1,1,0.711773986928,145.927021246,2,0,0.61156429816,5,6.0,32,bw,99.7832856877,2019_may_21_1623,003,256,20,5,ana,Experiment_EEG_version,20,
Nonliving_Things,../experiment_stimuli/bw_bc_bl/Nonliving_Things/Kitchen_Uten/frying-pan_12.jpg,Kitchen_Uten,0,frying-pan,0,32,32,31,148.271499238,nV_V,1,148.277211216,149.514090348,1,1,5.39194631297,154.926585509,2,0,0.401101443684,5,6.0,32,bw,99.7832856877,2019_may_21_1623,003,256,20,5,ana,Experiment_EEG_version,20,
Nonliving_Things,../experiment_stimuli/bw_bc_bl/Nonliving_Things/Vehicles/boat_21.jpg,Vehicles,0,boat,0,33,33,7,157.060602026,V_nV,2,157.065443678,158.29317537,1,2,0.350989439525,158.66471506,1,1,0.270807986381,5,6.0,32,bw,99.7832856877,2019_may_21_1623,003,256,20,5,ana,Experiment_EEG_version,20,
Living_Things,../experiment_stimuli/bw_bc_bl/Living_Things/Animals/armadillo_7.jpg,Animals,0,armadillo,0,34,34,1,160.668439281,nV_V,2,160.673359361,161.921063417,1,2,0.741679509403,162.683305072,3,0,0.350982067641,5,6.0,32,bw,99.7832856877,2019_may_21_1623,003,256,20,5,ana,Experiment_EEG_version,20,
Living_Things,../experiment_stimuli/bw_bc_bl/Living_Things/Insects/butterfly_9.jpg,Insects,0,butterfly,0,35,35,10,164.767344601,V_nV,1,164.772122969,165.999925949,1,1,0.36100657424,166.381472172,1,1,0.260783945676,5,6.0,32,bw,99.7832856877,2019_may_21_1623,003,256,20,5,ana,Experiment_EEG_version,20,
Nonliving_Things,../experiment_stimuli/bw_bc_bl/Nonliving_Things/Kitchen_Uten/pot_24.jpg,Kitchen_Uten,0,pot,0,36,36,66,168.375188932,V_nV,2,168.381011066,169.617804421,1,2,1.08259147662,170.720948058,2,0,0.280830200063,5,6.0,32,bw,99.7832856877,2019_may_21_1623,003,256,20,5,ana,Experiment_EEG_version,20,
Living_Things,../experiment_stimuli/bw_bc_bl/Living_Things/Animals/hippopotamus_18.jpg,Animals,0,hippopotamus,0,37,37,39,172.734669538,nV_V,2,172.739580284,173.96724704,1,2,0.33094233158,174.318736063,1,1,0.260787280044,5,6.5,32,bw,99.7832856877,2019_may_21_1623,003,256,20,5,ana,Experiment_EEG_version,20,
Living_Things,../experiment_stimuli/bw_bc_bl/Living_Things/Animals/giraffe_3.jpg,Animals,0,giraffe,0,38,38,32,176.312445991,V_nV,1,176.318320158,177.575095434,1,1,0.7819436586,178.377598283,2,0,0.361008811044,5,6.0,32,bw,99.7832856877,2019_may_21_1623,003,256,20,5,ana,Experiment_EEG_version,20,
Nonliving_Things,../experiment_stimuli/bw_bc_bl/Nonliving_Things/Furniture/lectern_1.jpg,Furniture,0,lectern,0,39,39,47,180.471495464,nV_V,1,180.476357391,181.724109225,0,2,1.3231047166,183.067760985,1,1,0.250764653319,5,6.0,32,bw,99.7832856877,2019_may_21_1623,003,256,20,5,ana,Experiment_EEG_version,20,
Living_Things,../experiment_stimuli/bw_bc_bl/Living_Things/Animals/cat_25.jpg,Animals,0,cat,0,40,40,13,185.051443647,V_nV,1,185.056262165,186.324121041,1,1,5.18133360404,191.52598929,3,0,0.771900907625,5,7.0,32,bw,99.7832856877,2019_may_21_1623,003,256,20,5,ana,Experiment_EEG_version,20,
Living_Things,../experiment_stimuli/bw_bc_bl/Living_Things/Animals/horse_7.jpg,Animals,0,horse,0,41,41,40,194.030971415,V_nV,1,194.035927329,195.273570954,1,1,0.591362290317,195.88548257,3,0,0.220704298001,5,6.0,32,bw,99.7832856877,2019_may_21_1623,003,256,20,5,ana,Experiment_EEG_version,20,
Living_Things,../experiment_stimuli/bw_bc_bl/Living_Things/Birds/raven_3.jpg,Birds,0,raven,0,42,42,67,197.839257243,V_nV,1,197.846022101,199.071830365,0,2,0.260789960623,199.353186298,1,1,0.210678354604,5,6.0,32,bw,99.7832856877,2019_may_21_1623,003,256,20,5,ana,Experiment_EEG_version,20,
Nonliving_Things,../experiment_stimuli/bw_bc_bl/Nonliving_Things/Furniture/lamp_13.jpg,Furniture,0,lamp,0,43,43,46,201.296772204,V_nV,2,201.301542256,202.549385325,1,2,0.791943801101,203.361881824,3,0,1.0625335006,5,7.5,32,bw,99.7832856877,2019_may_21_1623,003,256,20,5,ana,Experiment_EEG_version,20,
Nonliving_Things,../experiment_stimuli/bw_bc_bl/Nonliving_Things/Buildings/granary_17.jpg,Buildings,0,granary,0,44,44,35,206.15732724,V_nV,2,206.162314924,207.389909335,1,2,0.701756182825,208.112201337,1,1,0.421134137781,5,6.5,32,bw,99.7832856877,2019_may_21_1623,003,256,20,5,ana,Experiment_EEG_version,20,
Living_Things,../experiment_stimuli/bw_bc_bl/Living_Things/Insects/scorpion_6.jpg,Insects,0,scorpion,0,45,45,73,210.26626139,V_nV,1,210.273310669,211.518887785,1,1,3.96886397176,215.518324699,3,0,0.401092394721,5,6.0,32,bw,99.7832856877,2019_may_21_1623,003,256,20,5,ana,Experiment_EEG_version,20,
Nonliving_Things,../experiment_stimuli/bw_bc_bl/Nonliving_Things/Musical_Inst/drum_11.jpg,Musical_Inst,0,drum,0,46,46,25,217.652315434,V_nV,2,217.657239773,218.884902428,1,2,1.80416786834,220.709615731,1,1,0.320915704826,5,7.0,32,bw,99.7832856877,2019_may_21_1623,003,256,20,5,ana,Experiment_EEG_version,20,
Living_Things,../experiment_stimuli/bw_bc_bl/Living_Things/Insects/dragonfly_10.jpg,Insects,0,dragonfly,0,47,47,24,222.763427742,nV_V,2,222.770456589,224.016051912,1,2,4.65036708023,228.696989979,2,0,0.370873545529,5,6.0,32,bw,99.7832856877,2019_may_21_1623,003,256,20,5,ana,Experiment_EEG_version,20,
Nonliving_Things,../experiment_stimuli/bw_bc_bl/Nonliving_Things/Vehicles/tractor_23.jpg,Vehicles,0,tractor,0,48,48,86,230.800903983,nV_V,1,230.805919802,232.043510191,1,1,1.08257736801,233.146626227,3,0,0.431155855302,5,7.5,32,bw,99.7832856877,2019_may_21_1623,003,256,20,5,ana,Experiment_EEG_version,20,
Living_Things,../experiment_stimuli/bw_bc_bl/Living_Things/Birds/penguin_26.jpg,Birds,0,penguin,0,49,49,61,235.310705659,nV_V,2,235.316622277,236.543284401,1,2,1.00240103155,237.566249059,2,0,0.280830647331,5,7.5,32,bw,99.7832856877,2019_may_21_1623,003,256,20,5,ana,Experiment_EEG_version,20,
Living_Things,../experiment_stimuli/bw_bc_bl/Living_Things/Birds/sparrow_11.jpg,Birds,0,sparrow,0,50,50,79,239.579986464,nV_V,2,239.584958163,240.812563586,1,2,1.81416560849,242.647292765,1,1,0.320914092241,5,7.5,32,bw,99.7832856877,2019_may_21_1623,003,256,20,5,ana,Experiment_EEG_version,20,
Living_Things,../experiment_stimuli/bw_bc_bl/Living_Things/Marine_creatures/manatee_20.jpg,Marine_creatures,0,manatee,0,51,51,52,244.701118866,nV_V,2,244.705935654,245.94372701,1,2,0.491293050349,246.455571668,1,1,0.431153152604,5,6.0,32,bw,99.7832856877,2019_may_21_1623,003,256,20,5,ana,Experiment_EEG_version,20,
Nonliving_Things,../experiment_stimuli/bw_bc_bl/Nonliving_Things/Tools/axe_11.jpg,Tools,0,axe,0,52,52,3,248.619647863,V_nV,2,248.624604266,249.882292637,1,2,0.822015223559,250.72484374,2,0,0.45121605671,5,6.5,32,bw,99.7832856877,2019_may_21_1623,003,256,20,5,ana,Experiment_EEG_version,20,
Living_Things,../experiment_stimuli/bw_bc_bl/Living_Things/Marine_creatures/crab_7.jpg,Marine_creatures,0,crab,0,53,53,21,252.908965114,V_nV,1,252.913958155,254.161595145,0,2,0.541420629481,254.723561724,3,0,0.290849955054,5,6.0,32,bw,99.7832856877,2019_may_21_1623,003,256,20,5,ana,Experiment_EEG_version,20,
Nonliving_Things,../experiment_stimuli/bw_bc_bl/Nonliving_Things/Buildings/mill_8.jpg,Buildings,0,mill,0,54,54,53,256.747310658,nV_V,1,256.752220294,257.979895491,0,2,0.47124948795,258.471685992,1,1,0.20067959209,5,6.0,32,bw,99.7832856877,2019_may_21_1623,003,256,20,5,ana,Experiment_EEG_version,20,
Nonliving_Things,../experiment_stimuli/bw_bc_bl/Nonliving_Things/Kitchen_Uten/saucepan_24.jpg,Kitchen_Uten,0,saucepan,0,55,55,71,260.405264771,V_nV,2,260.411155904,261.647866215,1,2,0.691748480545,262.360155992,2,0,0.300714652054,5,7.5,32,bw,99.7832856877,2019_may_21_1623,003,256,20,5,ana,Experiment_EEG_version,20,
Nonliving_Things,../experiment_stimuli/bw_bc_bl/Nonliving_Things/Furniture/bedside-table_8.jpg,Furniture,0,bedside-table,0,56,56,6,264.393940744,V_nV,2,264.40006439,265.626511479,0,1,1.01242653048,266.659497028,1,1,0.371026705019,5,6.0,32,bw,99.7832856877,2019_may_21_1623,003,256,20,5,ana,Experiment_EEG_version,20,
Nonliving_Things,../experiment_stimuli/bw_bc_bl/Nonliving_Things/Buildings/cathedral_4.jpg,Buildings,0,cathedral,0,57,57,14,268.763431731,nV_V,1,268.768261135,270.006033833,1,1,0.85208442458,270.878673463,2,0,0.95230051945,5,6.0,32,bw,99.7832856877,2019_may_21_1623,003,256,20,5,ana,Experiment_EEG_version,20,
Nonliving_Things,../experiment_stimuli/bw_bc_bl/Nonliving_Things/Buildings/castle_18.jpg,Buildings,0,castle,0,58,58,12,273.563864,V_nV,2,273.568718408,274.796446363,1,2,0.561444511637,275.378428784,1,1,0.401136638597,5,6.5,32,bw,99.7832856877,2019_may_21_1623,003,256,20,5,ana,Experiment_EEG_version,20,
Living_Things,../experiment_stimuli/bw_bc_bl/Living_Things/Birds/kiwi_8.jpg,Birds,0,kiwi,0,59,59,44,277.512449653,V_nV,1,277.517390658,278.775106314,0,2,0.581492593512,279.377153745,3,0,0.391072557308,5,7.5,32,bw,99.7832856877,2019_may_21_1623,003,256,20,5,ana,Experiment_EEG_version,20,
Living_Things,../experiment_stimuli/bw_bc_bl/Living_Things/Animals/cheetah_7.jpg,Animals,0,cheetah,0,60,60,16,281.50111671,nV_V,2,281.506167367,282.733704561,1,2,2.2350888208,284.9893519,2,0,1.74402969214,5,6.0,32,bw,99.7832856877,2019_may_21_1623,003,256,20,5,ana,Experiment_EEG_version,20,
Nonliving_Things,../experiment_stimuli/bw_bc_bl/Nonliving_Things/Furniture/filling-cabinet_14.jpg,Furniture,0,filling-cabinet,0,61,61,29,288.466262278,V_nV,2,288.471002383,289.708881151,1,2,3.61809470574,293.347528191,2,0,4.28955001431,5,7.5,32,bw,99.7832856877,2019_may_21_1623,003,256,20,5,ana,Experiment_EEG_version,20,
Living_Things,../experiment_stimuli/bw_bc_bl/Living_Things/Birds/magpie_22.jpg,Birds,0,magpie,0,62,62,51,299.369969872,nV_V,2,299.374834979,300.612576775,1,2,0.852086687926,301.485195857,1,1,4.59020552039,5,6.0,32,bw,99.7832856877,2019_may_21_1623,003,256,20,5,ana,Experiment_EEG_version,20,
Living_Things,../experiment_stimuli/bw_bc_bl/Living_Things/Birds/pigeon_2.jpg,Birds,0,pigeon,0,63,63,63,307.808324293,nV_V,2,307.813227102,309.060934707,1,2,1.79412482772,310.875617658,1,1,0.260798997944,5,6.5,32,bw,99.7832856877,2019_may_21_1623,003,256,20,5,ana,Experiment_EEG_version,20,
Nonliving_Things,../experiment_stimuli/bw_bc_bl/Nonliving_Things/Furniture/couch_14.jpg,Furniture,0,couch,0,64,64,19,312.869311462,V_nV,2,312.874126153,314.152009389,1,2,0.701763163786,314.874322736,3,0,0.751866010251,5,6.5,32,bw,99.7832856877,2019_may_21_1623,003,256,20,5,ana,Experiment_EEG_version,20,
Nonliving_Things,../experiment_stimuli/bw_bc_bl/Nonliving_Things/Musical_Inst/tuba_25.jpg,Musical_Inst,0,tuba,0,65,65,89,317.359076057,V_nV,2,317.363931555,318.611698899,1,2,1.26298758877,319.905265204,3,0,0.340960488888,5,6.5,32,bw,99.7832856877,2019_may_21_1623,003,256,20,5,ana,Experiment_EEG_version,20,
Living_Things,../experiment_stimuli/bw_bc_bl/Living_Things/Animals/cow_9.jpg,Animals,0,cow,0,66,66,20,321.979135488,nV_V,2,321.984015997,323.211697129,1,2,1.78410516307,325.016362757,1,1,0.401091876207,5,6.5,32,bw,99.7832856877,2019_may_21_1623,003,256,20,5,ana,Experiment_EEG_version,20,
Nonliving_Things,../experiment_stimuli/bw_bc_bl/Nonliving_Things/Kitchen_Uten/fondue_15.jpg,Kitchen_Uten,0,fondue,0,67,67,30,327.150362958,V_nV,2,327.155135352,328.392965395,1,2,0.771925102687,329.185451696,3,0,0.471242228756,5,6.0,32,bw,99.7832856877,2019_may_21_1623,003,256,20,5,ana,Experiment_EEG_version,20,
Nonliving_Things,../experiment_stimuli/bw_bc_bl/Nonliving_Things/Furniture/armchair_8.jpg,Furniture,0,armchair,0,68,68,2,331.389588773,nV_V,1,331.395637724,332.622159549,0,2,0.310903216479,332.953626896,1,1,0.822025824804,5,6.0,32,bw,99.7832856877,2019_may_21_1623,003,256,20,5,ana,Experiment_EEG_version,20,
Living_Things,../experiment_stimuli/bw_bc_bl/Living_Things/Insects/ladybird_6.jpg,Insects,0,ladybird,0,69,69,45,335.508538309,nV_V,2,335.513366383,336.751138596,0,1,0.811994134448,337.583691,3,0,5.96318836883,5,6.0,32,bw,99.7832856877,2019_may_21_1623,003,256,20,5,ana,Experiment_EEG_version,20,
Living_Things,../experiment_stimuli/bw_bc_bl/Living_Things/Birds/hummingbird_2.jpg,Birds,0,hummingbird,0,70,70,42,345.279771656,V_nV,1,345.28462441,346.51235468,0,2,1.31307941279,347.845987878,1,1,0.340960128466,5,6.0,32,bw,99.7832856877,2019_may_21_1623,003,256,20,5,ana,Experiment_EEG_version,20,
Living_Things,../experiment_stimuli/bw_bc_bl/Living_Things/Animals/turtle_10.jpg,Animals,0,turtle,0,71,71,90,349.91985809,nV_V,2,349.924643345,351.17248285,1,2,2.30523769232,353.498278391,3,0,1.07256134623,5,6.0,32,bw,99.7832856877,2019_may_21_1623,003,256,20,5,ana,Experiment_EEG_version,20,
Living_Things,../experiment_stimuli/bw_bc_bl/Living_Things/Marine_creatures/killer-whale_21.jpg,Marine_creatures,0,killer-whale,0,72,72,43,356.303737126,nV_V,2,356.308530542,357.5363225,0,1,2.06483209413,359.621711916,1,1,0.270651770523,5,6.5,32,bw,99.7832856877,2019_may_21_1623,003,256,20,5,ana,Experiment_EEG_version,20,
Nonliving_Things,../experiment_stimuli/bw_bc_bl/Nonliving_Things/Tools/hammer_14.jpg,Tools,0,hammer,0,73,73,37,361.625306939,V_nV,2,361.630150441,362.877941658,1,2,0.912208841648,363.810687611,2,0,0.862129111541,5,6.0,32,bw,99.7832856877,2019_may_21_1623,003,256,20,5,ana,Experiment_EEG_version,20,
Living_Things,../experiment_stimuli/bw_bc_bl/Living_Things/Birds/toucan_6.jpg,Birds,0,toucan,0,74,74,85,366.405696695,nV_V,2,366.410555663,367.648300865,0,1,0.852077680407,368.520936368,3,0,0.862096698722,5,7.5,32,bw,99.7832856877,2019_may_21_1623,003,256,20,5,ana,Experiment_EEG_version,20,
Living_Things,../experiment_stimuli/bw_bc_bl/Living_Things/Birds/goose_22.jpg,Birds,0,goose,0,75,75,34,371.115946015,nV_V,2,371.120681894,372.348534506,1,2,0.0503405346535,372.419408787,1,1,0.230723425047,5,8.0,32,bw,99.7832856877,2019_may_21_1623,003,256,20,5,ana,Experiment_EEG_version,20,
Living_Things,../experiment_stimuli/bw_bc_bl/Living_Things/Marine_creatures/pomfret_4.jpg,Marine_creatures,0,pomfret,0,76,76,65,374.383040034,nV_V,2,374.38782054,375.645690887,0,1,0.972339281579,376.638637982,3,0,0.290916115511,5,6.5,32,bw,99.7832856877,2019_may_21_1623,003,256,20,5,ana,Experiment_EEG_version,20,
Nonliving_Things,../experiment_stimuli/bw_bc_bl/Nonliving_Things/Furniture/bookcase_8.jpg,Furniture,0,bookcase,0,77,77,8,378.662344022,V_nV,2,378.667056653,379.904949865,1,2,0.0802439451218,380.005763985,1,1,0.210679460317,5,6.0,32,bw,99.7832856877,2019_may_21_1623,003,256,20,5,ana,Experiment_EEG_version,20,
Nonliving_Things,../experiment_stimuli/bw_bc_bl/Nonliving_Things/Vehicles/car_17.jpg,Vehicles,0,car,0,78,78,11,381.949495091,nV_V,1,381.954385916,383.222169993,1,1,0.852095728973,384.094821758,3,0,1.98438162566,5,6.5,32,bw,99.7832856877,2019_may_21_1623,003,256,20,5,ana,Experiment_EEG_version,20,
Nonliving_Things,../experiment_stimuli/bw_bc_bl/Nonliving_Things/Vehicles/plane_0.jpg,Vehicles,0,plane,0,79,79,64,387.812231621,nV_V,1,387.817070198,389.054838588,1,1,8.09783375612,397.173236929,1,1,7.64684721082,5,6.0,32,bw,99.7832856877,2019_may_21_1623,003,256,20,5,ana,Experiment_EEG_version,20,
Living_Things,../experiment_stimuli/bw_bc_bl/Living_Things/Birds/goldfinch_14.jpg,Birds,0,goldfinch,0,80,80,33,406.552980695,V_nV,1,406.5578029,407.805604556,0,2,3.99892036454,411.825087938,2,0,1.64380219881,5,6.0,32,bw,99.7832856877,2019_may_21_1623,003,256,20,5,ana,Experiment_EEG_version,20,
Living_Things,../experiment_stimuli/bw_bc_bl/Living_Things/Birds/pelican_13.jpg,Birds,0,pelican,0,81,81,60,415.201780624,nV_V,2,415.206650313,416.444388249,0,1,6.53443272877,422.999375232,1,1,0.340961297275,5,6.0,32,bw,99.7832856877,2019_may_21_1623,003,256,20,5,ana,Experiment_EEG_version,20,
Nonliving_Things,../experiment_stimuli/bw_bc_bl/Nonliving_Things/Buildings/church_4.jpg,Buildings,0,church,0,82,82,17,425.073238739,V_nV,2,425.078229829,426.335886794,1,2,1.16275435872,427.519199145,2,0,4.51002768031,5,6.0,32,bw,99.7832856877,2019_may_21_1623,003,256,20,5,ana,Experiment_EEG_version,20,
Living_Things,../experiment_stimuli/bw_bc_bl/Living_Things/Birds/owl_25.jpg,Birds,0,owl,0,83,83,57,433.762130541,nV_V,2,433.766993697,435.014754158,0,1,0.771910550306,435.807216568,3,0,0.741833650041,5,6.0,32,bw,99.7832856877,2019_may_21_1623,003,256,20,5,ana,Experiment_EEG_version,20,
Nonliving_Things,../experiment_stimuli/bw_bc_bl/Nonliving_Things/Buildings/house_7.jpg,Buildings,0,house,0,84,84,41,438.281962524,V_nV,2,438.286670325,439.514541188,1,2,0.310904513812,439.85600267,1,1,0.190484520048,5,6.0,32,bw,99.7832856877,2019_may_21_1623,003,256,20,5,ana,Experiment_EEG_version,20,
Nonliving_Things,../experiment_stimuli/bw_bc_bl/Nonliving_Things/Furniture/wardrobe_10.jpg,Furniture,0,wardrobe,0,85,85,93,441.779558531,nV_V,1,441.784284324,443.032186742,1,1,1.37305579847,444.425794201,2,0,1.33312348276,5,7.0,32,bw,99.7832856877,2019_may_21_1623,003,256,20,5,ana,Experiment_EEG_version,20,
Living_Things,../experiment_stimuli/bw_bc_bl/Living_Things/Marine_creatures/narwhal_15.jpg,Marine_creatures,0,narwhal,0,86,86,55,447.491978976,V_nV,1,447.497034088,448.734594902,0,2,0.200662348187,448.955823429,1,1,0.491292404011,5,6.0,32,bw,99.7832856877,2019_may_21_1623,003,256,20,5,ana,Experiment_EEG_version,20,
Nonliving_Things,../experiment_stimuli/bw_bc_bl/Nonliving_Things/Kitchen_Uten/teapot_17.jpg,Kitchen_Uten,0,teapot,0,87,87,83,451.180001158,nV_V,1,451.184808773,452.442648387,1,1,1.70392530016,454.167113845,2,0,1.8943470919,5,8.0,32,bw,99.7832856877,2019_may_21_1623,003,256,20,5,ana,Experiment_EEG_version,20,
Living_Things,../experiment_stimuli/bw_bc_bl/Living_Things/Marine_creatures/whale_19.jpg,Marine_creatures,0,whale,0,88,88,94,457.794374423,nV_V,2,457.799494785,459.047002442,1,2,1.49349686294,460.561054931,1,1,5.03116619005,5,6.0,32,bw,99.7832856877,2019_may_21_1623,003,256,20,5,ana,Experiment_EEG_version,20,
Living_Things,../experiment_stimuli/bw_bc_bl/Living_Things/Marine_creatures/lobster_26.jpg,Marine_creatures,0,lobster,0,89,89,49,467.325095895,nV_V,2,467.330274903,468.607833505,1,2,4.34967546538,472.978017549,2,0,2.51569780591,5,6.5,32,bw,99.7832856877,2019_may_21_1623,003,256,20,5,ana,Experiment_EEG_version,20,
Nonliving_Things,../experiment_stimuli/bw_bc_bl/Nonliving_Things/Furniture/bed_24.jpg,Furniture,0,bed,0,90,90,5,477.226623244,V_nV,2,477.23134209,478.499292059,0,1,1.65382169071,480.173702447,3,0,2.35535700456,5,6.0,32,bw,99.7832856877,2019_may_21_1623,003,256,20,5,ana,Experiment_EEG_version,20,
Living_Things,../experiment_stimuli/bw_bc_bl/Living_Things/Animals/lioness_16.jpg,Animals,0,lioness,0,91,91,48,484.261913721,V_nV,1,484.266771775,485.514679937,1,1,6.96539013623,492.500487717,2,0,0.801966138883,5,6.0,32,bw,99.7832856877,2019_may_21_1623,003,256,20,5,ana,Experiment_EEG_version,20,
Nonliving_Things,../experiment_stimuli/bw_bc_bl/Nonliving_Things/Vehicles/van_23.jpg,Vehicles,0,van,0,92,92,91,495.035334764,V_nV,2,495.040059181,496.277938644,1,2,0.95229944028,497.250789009,3,0,0.661663994193,5,8.0,32,bw,99.7832856877,2019_may_21_1623,003,256,20,5,ana,Experiment_EEG_version,20,
Living_Things,../experiment_stimuli/bw_bc_bl/Living_Things/Birds/ostrich_18.jpg,Birds,0,ostrich,0,93,93,56,499.645359738,nV_V,2,499.650207604,500.877945615,0,1,0.300885709934,501.199387951,1,1,0.92222824716,5,7.0,32,bw,99.7832856877,2019_may_21_1623,003,256,20,5,ana,Experiment_EEG_version,20,
Living_Things,../experiment_stimuli/bw_bc_bl/Living_Things/Birds/partridge_2.jpg,Birds,0,partridge,0,94,94,59,503.854508749,nV_V,2,503.859327665,505.09712563,1,2,0.771901561646,505.889565736,1,1,1.04249648354,5,6.0,32,bw,99.7832856877,2019_may_21_1623,003,256,20,5,ana,Experiment_EEG_version,20,
Nonliving_Things,../experiment_stimuli/bw_bc_bl/Nonliving_Things/Kitchen_Uten/small-saucepan_7.jpg,Kitchen_Uten,0,small-saucepan,0,95,95,77,508.664963063,nV_V,1,508.669941232,509.917593311,0,2,11.3447290561,521.282875092,1,1,1.7139647014,5,6.5,32,bw,99.7832856877,2019_may_21_1623,003,256,20,5,ana,Experiment_EEG_version,20,
