category,probe_path,subcategory,fixation_duration,label,trials.thisRepN,trials.thisTrialN,trials.thisN,trials.thisIndex,image_onset_time,response_window,correctAns,probe_onset,discrim_resptime,response.corr,response.keys,response.rt,visible_resptime,visible.keys,visible.corr,visible.rt,probeFrames,jitter2,n_square,experiment_color,frameRate,date,session,image_size,premask_dur,probeFrames,participant,expName,postmask_dur,
Living_Things,../experiment_stimuli/bw_bc_bl/Living_Things/Marine_creatures/shark_16.jpg,Marine_creatures,0,shark,0,0,0,75,3.71685309592,V_nV,1,3.73798513552,4.99955494376,0,2,15.6843048881,20.7146996048,1,1,0.230726733105,5,7.0,32,bw,99.7806805336,2019_may_27_1708,017,256,20,5,ana,Experiment_EEG_version,20,
Living_Things,../experiment_stimuli/bw_bc_bl/Living_Things/Marine_creatures/crab_25.jpg,Marine_creatures,0,crab,0,1,1,21,22.6780672083,nV_V,2,22.6829175483,23.9707733148,0,1,0.992377994582,24.9837214169,2,0,0.371032833122,5,6.0,32,bw,99.7806805336,2019_may_27_1708,017,256,20,5,ana,Experiment_EEG_version,20,
Nonliving_Things,../experiment_stimuli/bw_bc_bl/Nonliving_Things/Kitchen_Uten/frying-pan_13.jpg,Kitchen_Uten,0,frying-pan,0,2,2,31,27.0876518493,V_nV,2,27.0927751483,28.3703397915,1,2,0.731822425034,29.1227132117,3,0,0.290858109249,5,6.0,32,bw,99.7806805336,2019_may_27_1708,017,256,20,5,ana,Experiment_EEG_version,20,
Living_Things,../experiment_stimuli/bw_bc_bl/Living_Things/Birds/owl_24.jpg,Birds,0,owl,0,3,3,57,31.1464857205,nV_V,2,31.1522885738,32.3990994394,0,1,0.781932508107,33.2015995178,1,1,0.210701361997,5,6.0,32,bw,99.7806805336,2019_may_27_1708,017,256,20,5,ana,Experiment_EEG_version,20,
Living_Things,../experiment_stimuli/bw_bc_bl/Living_Things/Birds/seagull_12.jpg,Birds,0,seagull,0,4,4,74,35.1451699536,nV_V,2,35.1500079369,36.4178318058,1,2,0.952310428955,37.3906920799,2,0,0.371025238885,5,6.0,32,bw,99.7806805336,2019_may_27_1708,017,256,20,5,ana,Experiment_EEG_version,20,
Nonliving_Things,../experiment_stimuli/bw_bc_bl/Nonliving_Things/Buildings/castle_3.jpg,Buildings,0,castle,0,5,5,12,39.4946382225,V_nV,2,39.4999996684,40.7572735196,1,2,0.531394013902,41.3092131147,2,0,0.200669791317,5,6.0,32,bw,99.7806805336,2019_may_27_1708,017,256,20,5,ana,Experiment_EEG_version,20,
Nonliving_Things,../experiment_stimuli/bw_bc_bl/Nonliving_Things/Kitchen_Uten/pot_2.jpg,Kitchen_Uten,0,pot,0,6,6,66,43.2427667165,V_nV,2,43.247618072,44.4953931118,1,2,0.511347439606,45.0273095802,3,0,0.280825395603,5,6.0,32,bw,99.7806805336,2019_may_27_1708,017,256,20,5,ana,Experiment_EEG_version,20,
Living_Things,../experiment_stimuli/bw_bc_bl/Living_Things/Animals/cat_22.jpg,Animals,0,cat,0,7,7,13,47.041019222,V_nV,1,47.0469735016,48.2736054608,1,1,0.300879578106,48.5950561429,1,1,0.290850064019,5,6.0,32,bw,99.7806805336,2019_may_27_1708,017,256,20,5,ana,Experiment_EEG_version,20,
Living_Things,../experiment_stimuli/bw_bc_bl/Living_Things/Birds/pelican_24.jpg,Birds,0,pelican,0,8,8,60,50.618802483,V_nV,1,50.6236708229,51.8614194046,0,2,0.220725489547,52.1026901712,1,1,0.260802148143,5,7.5,32,bw,99.7806805336,2019_may_27_1708,017,256,20,5,ana,Experiment_EEG_version,20,
Nonliving_Things,../experiment_stimuli/bw_bc_bl/Nonliving_Things/Furniture/filling-cabinet_24.jpg,Furniture,0,filling-cabinet,0,9,9,29,54.0963946185,nV_V,1,54.1017745524,55.3489861416,1,1,0.531382190529,55.9009154402,3,0,0.150616504485,5,6.0,32,bw,99.7806805336,2019_may_27_1708,017,256,20,5,ana,Experiment_EEG_version,20,
Living_Things,../experiment_stimuli/bw_bc_bl/Living_Things/Birds/hen_13.jpg,Birds,0,hen,0,10,10,38,57.784374861,V_nV,1,57.789239859,59.016970603,0,2,0.1305205971,59.1680459057,1,1,0.180625476874,5,7.0,32,bw,99.7806805336,2019_may_27_1708,017,256,20,5,ana,Experiment_EEG_version,20,
Living_Things,../experiment_stimuli/bw_bc_bl/Living_Things/Marine_creatures/manatee_17.jpg,Marine_creatures,0,manatee,0,11,11,52,61.0815536215,V_nV,1,61.0863831653,62.3341689343,1,1,0.44118592958,62.7959263287,2,0,0.230717466678,5,6.0,32,bw,99.7806805336,2019_may_27_1708,017,256,20,5,ana,Experiment_EEG_version,20,
Living_Things,../experiment_stimuli/bw_bc_bl/Living_Things/Animals/lioness_18.jpg,Animals,0,lioness,0,12,12,48,64.759536861,nV_V,2,64.7644773726,66.0021526623,1,2,0.160573760513,66.1832726549,1,1,0.260796997929,5,6.5,32,bw,99.7806805336,2019_may_27_1708,017,256,20,5,ana,Experiment_EEG_version,20,
Nonliving_Things,../experiment_stimuli/bw_bc_bl/Nonliving_Things/Musical_Inst/saxophone_1.jpg,Musical_Inst,0,saxophone,0,13,13,72,68.1769716961,V_nV,2,68.1820616683,69.4295992567,1,2,0.120486342115,69.570624613,1,1,3.90871766396,5,6.5,32,bw,99.7806805336,2019_may_27_1708,017,256,20,5,ana,Experiment_EEG_version,20,
Living_Things,../experiment_stimuli/bw_bc_bl/Living_Things/Marine_creatures/pomfret_8.jpg,Marine_creatures,0,pomfret,0,14,14,65,75.2122684361,V_nV,1,75.2184471411,76.4749101729,1,1,1.01244502654,77.5079171343,2,0,0.170592989074,5,6.0,32,bw,99.7806805336,2019_may_27_1708,017,256,20,5,ana,Experiment_EEG_version,20,
Nonliving_Things,../experiment_stimuli/bw_bc_bl/Nonliving_Things/Musical_Inst/guitar_3.jpg,Musical_Inst,0,guitar,0,15,15,36,79.411389915,V_nV,2,79.4161524521,80.664017186,0,1,1.22273026314,81.9073201169,1,1,0.300888927886,5,6.0,32,bw,99.7806805336,2019_may_27_1708,017,256,20,5,ana,Experiment_EEG_version,20,
Nonliving_Things,../experiment_stimuli/bw_bc_bl/Nonliving_Things/Buildings/granary_5.jpg,Buildings,0,granary,0,16,16,35,83.9412377097,V_nV,2,83.9461417899,85.2039001528,1,2,0.651481910376,85.8759124835,2,0,0.330939512467,5,8.0,32,bw,99.7806805336,2019_may_27_1708,017,256,20,5,ana,Experiment_EEG_version,20,
Living_Things,../experiment_stimuli/bw_bc_bl/Living_Things/Birds/goldfinch_15.jpg,Birds,0,goldfinch,0,17,17,33,87.9399334162,V_nV,1,87.94550428,89.1925521761,0,2,0.391094079707,89.6042208895,2,0,0.220549303805,5,6.5,32,bw,99.7806805336,2019_may_27_1708,017,256,20,5,ana,Experiment_EEG_version,20,
Nonliving_Things,../experiment_stimuli/bw_bc_bl/Nonliving_Things/Furniture/rocking-chair_9.jpg,Furniture,0,rocking-chair,0,18,18,69,91.557790979,nV_V,1,91.562679488,92.8004013936,1,1,0.801966736326,93.6229403352,2,0,0.601542817429,5,7.5,32,bw,99.7806805336,2019_may_27_1708,017,256,20,5,ana,Experiment_EEG_version,20,
Nonliving_Things,../experiment_stimuli/bw_bc_bl/Nonliving_Things/Vehicles/ship_17.jpg,Vehicles,0,ship,0,19,19,76,95.9573686547,nV_V,1,95.9635748174,97.1899518291,0,2,5.94314651657,103.153658446,1,1,0.731809203513,5,6.0,32,bw,99.7806805336,2019_may_27_1708,017,256,20,5,ana,Experiment_EEG_version,20,
Living_Things,../experiment_stimuli/bw_bc_bl/Living_Things/Birds/rooster_13.jpg,Birds,0,rooster,0,20,20,70,105.618367648,nV_V,2,105.623313964,106.870991652,1,2,0.0102492142469,106.901768005,2,0,0.701749822125,5,6.0,32,bw,99.7806805336,2019_may_27_1708,017,256,20,5,ana,Experiment_EEG_version,20,
Living_Things,../experiment_stimuli/bw_bc_bl/Living_Things/Animals/tiger_9.jpg,Animals,0,tiger,0,21,21,84,109.336461335,nV_V,2,109.341510992,110.579056366,0,1,0.400946629699,111.000568145,2,0,3.0568745553,5,6.5,32,bw,99.7806805336,2019_may_27_1708,017,256,20,5,ana,Experiment_EEG_version,20,
Living_Things,../experiment_stimuli/bw_bc_bl/Living_Things/Birds/duck_0.jpg,Birds,0,duck,0,22,22,26,115.790479607,V_nV,1,115.796987266,117.0230588,1,1,0.120484071318,117.164085547,1,1,0.250779573806,5,7.5,32,bw,99.7806805336,2019_may_27_1708,017,256,20,5,ana,Experiment_EEG_version,20,
Living_Things,../experiment_stimuli/bw_bc_bl/Living_Things/Animals/lynx_10.jpg,Animals,0,lynx,0,23,23,50,119.14777645,nV_V,2,119.153605118,120.410424735,1,2,0.561444996856,120.99240501,1,1,0.421134442324,5,6.0,32,bw,99.7806805336,2019_may_27_1708,017,256,20,5,ana,Experiment_EEG_version,20,
Nonliving_Things,../experiment_stimuli/bw_bc_bl/Nonliving_Things/Furniture/lectern_4.jpg,Furniture,0,lectern,0,24,24,47,123.146464521,V_nV,2,123.151256403,124.439192063,1,2,0.812072854722,125.271798888,1,1,0.872119393665,5,7.5,32,bw,99.7806805336,2019_may_27_1708,017,256,20,5,ana,Experiment_EEG_version,20,
Living_Things,../experiment_stimuli/bw_bc_bl/Living_Things/Marine_creatures/killer-whale_15.jpg,Marine_creatures,0,killer-whale,0,25,25,43,127.876747795,V_nV,1,127.883178973,129.199533712,1,1,3.14706797805,132.367136366,2,0,0.220722387778,5,6.0,32,bw,99.7806805336,2019_may_27_1708,017,256,20,5,ana,Experiment_EEG_version,20,
Living_Things,../experiment_stimuli/bw_bc_bl/Living_Things/Animals/cow_19.jpg,Animals,0,cow,0,26,26,20,134.320759563,nV_V,2,134.326675501,135.633515556,1,2,0.6616682983,136.325746187,2,0,0.401092507644,5,6.0,32,bw,99.7806805336,2019_may_27_1708,017,256,20,5,ana,Experiment_EEG_version,20,
Nonliving_Things,../experiment_stimuli/bw_bc_bl/Nonliving_Things/Kitchen_Uten/cup_13.jpg,Kitchen_Uten,0,cup,0,27,27,22,138.459763159,nV_V,1,138.465396954,139.762500144,1,1,0.521375367651,140.304410477,3,0,0.200675359229,5,6.0,32,bw,99.7806805336,2019_may_27_1708,017,256,20,5,ana,Experiment_EEG_version,20,
Living_Things,../experiment_stimuli/bw_bc_bl/Living_Things/Birds/hummingbird_22.jpg,Birds,0,hummingbird,0,28,28,42,142.237976369,nV_V,2,142.242791333,143.52066163,0,1,0.300884401659,143.842098963,3,0,0.300876033027,5,6.0,32,bw,99.7806805336,2019_may_27_1708,017,256,20,5,ana,Experiment_EEG_version,20,
Nonliving_Things,../experiment_stimuli/bw_bc_bl/Nonliving_Things/Musical_Inst/piano__9.jpg,Musical_Inst,0,piano,0,29,29,62,145.875902926,nV_V,1,145.882461982,147.128503283,0,2,0.0202688935678,147.169338627,1,1,2.71612455207,5,6.5,32,bw,99.7806805336,2019_may_27_1708,017,256,20,5,ana,Experiment_EEG_version,20,
Nonliving_Things,../experiment_stimuli/bw_bc_bl/Nonliving_Things/Vehicles/plane_11.jpg,Vehicles,0,plane,0,30,30,64,151.618360858,nV_V,1,151.623292675,152.881011354,0,2,13.619827383,166.521402585,2,0,1.39324112586,5,6.5,32,bw,99.7806805336,2019_may_27_1708,017,256,20,5,ana,Experiment_EEG_version,20,
Nonliving_Things,../experiment_stimuli/bw_bc_bl/Nonliving_Things/Kitchen_Uten/teapot_26.jpg,Kitchen_Uten,0,teapot,0,31,31,83,169.647562592,nV_V,1,169.65243462,170.900184518,0,2,0.913376359036,171.834118371,1,1,0.421139186714,5,8.0,32,bw,99.7806805336,2019_may_27_1708,017,256,20,5,ana,Experiment_EEG_version,20,
Living_Things,../experiment_stimuli/bw_bc_bl/Living_Things/Marine_creatures/narwhal_2.jpg,Marine_creatures,0,narwhal,0,32,32,55,173.987006437,nV_V,2,173.991804587,175.26968462,1,2,0.581488341326,175.871715915,2,0,0.300876314985,5,6.0,32,bw,99.7806805336,2019_may_27_1708,017,256,20,5,ana,Experiment_EEG_version,20,
Living_Things,../experiment_stimuli/bw_bc_bl/Living_Things/Animals/giraffe_14.jpg,Animals,0,giraffe,0,33,33,32,177.905537905,V_nV,1,177.910399609,179.178179509,1,1,0.781926639844,179.980681358,1,1,0.310744313058,5,7.0,32,bw,99.7806805336,2019_may_27_1708,017,256,20,5,ana,Experiment_EEG_version,20,
Nonliving_Things,../experiment_stimuli/bw_bc_bl/Nonliving_Things/Furniture/couch_15.jpg,Furniture,0,couch,0,34,34,19,182.024466573,nV_V,1,182.029313286,183.327201491,0,2,8.33819379867,191.685962514,1,1,0.260783144739,5,6.0,32,bw,99.7806805336,2019_may_27_1708,017,256,20,5,ana,Experiment_EEG_version,20,
Nonliving_Things,../experiment_stimuli/bw_bc_bl/Nonliving_Things/Vehicles/tractor_7.jpg,Vehicles,0,tractor,0,35,35,86,193.679812884,nV_V,1,193.685658225,194.992560805,1,1,0.491288354853,195.50441382,3,0,0.16061368119,5,6.0,32,bw,99.7806805336,2019_may_27_1708,017,256,20,5,ana,Experiment_EEG_version,20,
Nonliving_Things,../experiment_stimuli/bw_bc_bl/Nonliving_Things/Furniture/bedside-table_6.jpg,Furniture,0,bedside-table,0,36,36,6,197.39788868,V_nV,2,197.402918563,198.680577021,1,2,0.561462955084,199.262612618,2,0,0.260785956867,5,6.0,32,bw,99.7806805336,2019_may_27_1708,017,256,20,5,ana,Experiment_EEG_version,20,
Nonliving_Things,../experiment_stimuli/bw_bc_bl/Nonliving_Things/Furniture/armchair_21.jpg,Furniture,0,armchair,0,37,37,2,201.256276156,nV_V,1,201.26118801,202.528954643,1,1,0.801971401786,203.351458916,2,0,0.200653949752,5,6.0,32,bw,99.7806805336,2019_may_27_1708,017,256,20,5,ana,Experiment_EEG_version,20,
Nonliving_Things,../experiment_stimuli/bw_bc_bl/Nonliving_Things/Kitchen_Uten/coking-pot_11.jpg,Kitchen_Uten,0,coking-pot,0,38,38,18,205.285038536,V_nV,2,205.289858005,206.547683649,1,2,2.01460917387,208.582852675,2,0,1.45337482053,5,6.5,32,bw,99.7806805336,2019_may_27_1708,017,256,20,5,ana,Experiment_EEG_version,20,
Nonliving_Things,../experiment_stimuli/bw_bc_bl/Nonliving_Things/Musical_Inst/drum_10.jpg,Musical_Inst,0,drum,0,39,39,25,211.769129983,nV_V,1,211.776009508,213.021759712,0,2,2.37539875903,215.417736816,2,0,0.571470439667,5,7.0,32,bw,99.7806805336,2019_may_27_1708,017,256,20,5,ana,Experiment_EEG_version,20,
Nonliving_Things,../experiment_stimuli/bw_bc_bl/Nonliving_Things/Musical_Inst/trumpet_17.jpg,Musical_Inst,0,trumpet,0,40,40,88,217.722075325,nV_V,1,217.72698095,218.964679981,0,2,6.18367962446,225.168945415,1,1,0.270803877153,5,6.0,32,bw,99.7806805336,2019_may_27_1708,017,256,20,5,ana,Experiment_EEG_version,20,
Living_Things,../experiment_stimuli/bw_bc_bl/Living_Things/Birds/pigeon_8.jpg,Birds,0,pigeon,0,41,41,63,227.172626381,V_nV,1,227.177492236,228.42524619,0,2,1.73399209511,230.179802829,1,1,0.330936516169,5,6.0,32,bw,99.7806805336,2019_may_27_1708,017,256,20,5,ana,Experiment_EEG_version,20,
Nonliving_Things,../experiment_stimuli/bw_bc_bl/Nonliving_Things/Buildings/factory_16.jpg,Buildings,0,factory,0,42,42,28,232.243646937,V_nV,2,232.248523946,233.506294505,1,2,6.35404403787,239.880872136,1,1,1.85425393656,5,6.5,32,bw,99.7806805336,2019_may_27_1708,017,256,20,5,ana,Experiment_EEG_version,20,
Nonliving_Things,../experiment_stimuli/bw_bc_bl/Nonliving_Things/Vehicles/bus_11.jpg,Vehicles,0,bus,0,43,43,9,243.468050469,V_nV,2,243.472927136,244.750745986,0,1,1.26298014517,246.034265931,2,0,0.300868149847,5,6.5,32,bw,99.7806805336,2019_may_27_1708,017,256,20,5,ana,Experiment_EEG_version,20,
Living_Things,../experiment_stimuli/bw_bc_bl/Living_Things/Animals/rhino_21.jpg,Animals,0,rhino,0,44,44,68,248.068044811,V_nV,1,248.072902922,249.340728224,0,2,0.431187493959,249.792480167,2,0,0.190723960288,5,6.0,32,bw,99.7806805336,2019_may_27_1708,017,256,20,5,ana,Experiment_EEG_version,20,
Nonliving_Things,../experiment_stimuli/bw_bc_bl/Nonliving_Things/Furniture/table_4.jpg,Furniture,0,table,0,45,45,81,251.715974658,nV_V,1,251.721822916,252.978622706,1,1,0.902188692242,253.901375303,3,0,0.230737575097,5,6.0,32,bw,99.7806805336,2019_may_27_1708,017,256,20,5,ana,Experiment_EEG_version,20,
Living_Things,../experiment_stimuli/bw_bc_bl/Living_Things/Insects/butterfly_23.jpg,Insects,0,butterfly,0,46,46,10,255.864993696,V_nV,1,255.87093216,257.107611088,0,2,0.601532994071,257.729692247,2,0,0.431169302203,5,6.0,32,bw,99.7806805336,2019_may_27_1708,017,256,20,5,ana,Experiment_EEG_version,20,
Living_Things,../experiment_stimuli/bw_bc_bl/Living_Things/Birds/partridge_18.jpg,Birds,0,partridge,0,47,47,59,259.893753889,nV_V,2,259.898672225,261.126342293,0,1,1.00241512503,262.149309861,1,1,0.270834696246,5,6.0,32,bw,99.7806805336,2019_may_27_1708,017,256,20,5,ana,Experiment_EEG_version,20,
Nonliving_Things,../experiment_stimuli/bw_bc_bl/Nonliving_Things/Vehicles/train_21.jpg,Vehicles,0,train,0,48,48,87,264.153014357,nV_V,1,264.157867057,265.405658826,0,2,1.34314396372,266.769349349,1,1,0.310918441974,5,6.0,32,bw,99.7806805336,2019_may_27_1708,017,256,20,5,ana,Experiment_EEG_version,20,
Nonliving_Things,../experiment_stimuli/bw_bc_bl/Nonliving_Things/Kitchen_Uten/saucepan_19.jpg,Kitchen_Uten,0,saucepan,0,49,49,71,268.813152266,nV_V,1,268.817995024,270.085826224,1,1,0.621582639404,270.727956802,3,0,0.260802558158,5,7.5,32,bw,99.7806805336,2019_may_27_1708,017,256,20,5,ana,Experiment_EEG_version,20,
Nonliving_Things,../experiment_stimuli/bw_bc_bl/Nonliving_Things/Furniture/sofa_7.jpg,Furniture,0,sofa,0,50,50,78,272.721642028,V_nV,2,272.728749903,273.964247236,0,1,9.22026885045,283.205092445,2,0,0.371061528102,5,7.0,32,bw,99.7806805336,2019_may_27_1708,017,256,20,5,ana,Experiment_EEG_version,20,
Living_Things,../experiment_stimuli/bw_bc_bl/Living_Things/Animals/elephant_12.jpg,Animals,0,elephant,0,51,51,27,285.309028283,nV_V,2,285.31390515,286.54159615,0,1,0.000296334037557,286.562435859,1,1,0.270816470962,5,7.5,32,bw,99.7806805336,2019_may_27_1708,017,256,20,5,ana,Experiment_EEG_version,20,
Living_Things,../experiment_stimuli/bw_bc_bl/Living_Things/Birds/kiwi_2.jpg,Birds,0,kiwi,0,52,52,44,288.566094525,V_nV,1,288.572108345,289.818716589,1,1,1.98453945434,291.833816688,1,1,0.46123577049,5,6.5,32,bw,99.7806805336,2019_may_27_1708,017,256,20,5,ana,Experiment_EEG_version,20,
Nonliving_Things,../experiment_stimuli/bw_bc_bl/Nonliving_Things/Tools/hammer_17.jpg,Tools,0,hammer,0,53,53,37,294.027963427,V_nV,2,294.032811534,295.300633922,1,2,0.611401679926,295.932636438,2,0,0.320933573181,5,6.5,32,bw,99.7806805336,2019_may_27_1708,017,256,20,5,ana,Experiment_EEG_version,20,
Living_Things,../experiment_stimuli/bw_bc_bl/Living_Things/Birds/toucan_11.jpg,Birds,0,toucan,0,54,54,85,297.986569684,V_nV,1,297.991524181,299.249218199,0,2,1.48346441612,300.753234633,2,0,0.421149566071,5,6.5,32,bw,99.7806805336,2019_may_27_1708,017,256,20,5,ana,Experiment_EEG_version,20,
Living_Things,../experiment_stimuli/bw_bc_bl/Living_Things/Animals/zebra_16.jpg,Animals,0,zebra,0,55,55,95,302.907263085,nV_V,2,302.912061321,304.159893536,1,2,18.2499097199,322.430355327,1,1,0.681703286013,5,6.0,32,bw,99.7806805336,2019_may_27_1708,017,256,20,5,ana,Experiment_EEG_version,20,
Nonliving_Things,../experiment_stimuli/bw_bc_bl/Nonliving_Things/Furniture/lamp_18.jpg,Furniture,0,lamp,0,56,56,46,324.844963674,nV_V,1,324.84972988,326.117640576,1,1,0.571466124151,326.709641093,3,0,0.992379881674,5,6.0,32,bw,99.7806805336,2019_may_27_1708,017,256,20,5,ana,Experiment_EEG_version,20,
Living_Things,../experiment_stimuli/bw_bc_bl/Living_Things/Insects/dragonfly_11.jpg,Insects,0,dragonfly,0,57,57,24,329.434947679,V_nV,1,329.439746708,330.677544023,0,2,0.461240149802,331.159355096,2,0,0.200669205049,5,6.5,32,bw,99.7806805336,2019_may_27_1708,017,256,20,5,ana,Experiment_EEG_version,20,
Living_Things,../experiment_stimuli/bw_bc_bl/Living_Things/Animals/horse_12.jpg,Animals,0,horse,0,58,58,40,333.092895292,V_nV,1,333.097708437,334.325492583,1,1,20.5348929355,354.880942469,2,0,0.240742766531,5,6.0,32,bw,99.7806805336,2019_may_27_1708,017,256,20,5,ana,Experiment_EEG_version,20,
Living_Things,../experiment_stimuli/bw_bc_bl/Living_Things/Animals/hippopotamus_1.jpg,Animals,0,hippopotamus,0,59,59,39,356.854573218,V_nV,1,356.859414145,358.097156028,1,1,0.180615146412,358.298320301,1,1,0.371047682129,5,6.5,32,bw,99.7806805336,2019_may_27_1708,017,256,20,5,ana,Experiment_EEG_version,20,
Living_Things,../experiment_stimuli/bw_bc_bl/Living_Things/Animals/tapir_24.jpg,Animals,0,tapir,0,60,60,82,360.402265034,nV_V,2,360.406993365,361.654895786,1,2,0.801965063438,362.477401736,2,0,0.511333936593,5,6.0,32,bw,99.7806805336,2019_may_27_1708,017,256,20,5,ana,Experiment_EEG_version,20,
Nonliving_Things,../experiment_stimuli/bw_bc_bl/Nonliving_Things/Musical_Inst/violin_17.jpg,Musical_Inst,0,violin,0,61,61,92,364.721658565,nV_V,1,364.726644662,365.964259389,1,1,2.78629522026,368.771136543,3,0,1.09260304389,5,7.5,32,bw,99.7806805336,2019_may_27_1708,017,256,20,5,ana,Experiment_EEG_version,20,
Nonliving_Things,../experiment_stimuli/bw_bc_bl/Nonliving_Things/Musical_Inst/tuba_3.jpg,Musical_Inst,0,tuba,0,62,62,89,371.596603191,V_nV,2,371.601621563,372.829183907,0,1,0.751896235626,373.601649889,2,0,0.431156291394,5,7.0,32,bw,99.7806805336,2019_may_27_1708,017,256,20,5,ana,Experiment_EEG_version,20,
Living_Things,../experiment_stimuli/bw_bc_bl/Living_Things/Birds/ostrich_13.jpg,Birds,0,ostrich,0,63,63,56,375.765666115,V_nV,1,375.770709878,376.998245211,0,2,1.00240155752,378.021209358,1,1,0.290867229225,5,7.5,32,bw,99.7806805336,2019_may_27_1708,017,256,20,5,ana,Experiment_EEG_version,20,
Nonliving_Things,../experiment_stimuli/bw_bc_bl/Nonliving_Things/Vehicles/van_21.jpg,Vehicles,0,van,0,64,64,91,380.044975912,V_nV,2,380.051117497,381.307613047,1,2,1.33313604677,382.661326434,3,0,0.420990715036,5,6.5,32,bw,99.7806805336,2019_may_27_1708,017,256,20,5,ana,Experiment_EEG_version,20,
Nonliving_Things,../experiment_stimuli/bw_bc_bl/Nonliving_Things/Vehicles/motorbike_21.jpg,Vehicles,0,motorbike,0,65,65,54,384.815334973,nV_V,1,384.82156788,386.057952977,0,2,0.350987439509,386.439499517,2,0,0.260797847761,5,7.5,32,bw,99.7806805336,2019_may_27_1708,017,256,20,5,ana,Experiment_EEG_version,20,
Living_Things,../experiment_stimuli/bw_bc_bl/Living_Things/Marine_creatures/lobster_20.jpg,Marine_creatures,0,lobster,0,66,66,49,388.433199197,V_nV,1,388.438161059,389.66580033,1,1,0.000256815925241,389.686589529,1,1,0.441180380993,5,6.0,32,bw,99.7806805336,2019_may_27_1708,017,256,20,5,ana,Experiment_EEG_version,20,
Living_Things,../experiment_stimuli/bw_bc_bl/Living_Things/Marine_creatures/sperm-whale_22.jpg,Marine_creatures,0,sperm-whale,0,67,67,80,391.860665411,V_nV,1,391.865596063,393.113281228,0,2,0.882144561736,394.015977131,1,1,1.50348253921,5,7.0,32,bw,99.7806805336,2019_may_27_1708,017,256,20,5,ana,Experiment_EEG_version,20,
Nonliving_Things,../experiment_stimuli/bw_bc_bl/Nonliving_Things/Furniture/bed_25.jpg,Furniture,0,bed,0,68,68,5,397.252373375,V_nV,2,397.257303266,398.525054163,1,2,1.78410703945,400.329703551,1,1,0.701758318115,5,6.0,32,bw,99.7806805336,2019_may_27_1708,017,256,20,5,ana,Experiment_EEG_version,20,
Nonliving_Things,../experiment_stimuli/bw_bc_bl/Nonliving_Things/Furniture/wardrobe_24.jpg,Furniture,0,wardrobe,0,69,69,93,402.764361329,nV_V,1,402.769495598,404.047051188,0,2,6.43421199895,410.501812882,1,1,0.501315248897,5,7.5,32,bw,99.7806805336,2019_may_27_1708,017,256,20,5,ana,Experiment_EEG_version,20,
Nonliving_Things,../experiment_stimuli/bw_bc_bl/Nonliving_Things/Vehicles/car_2.jpg,Vehicles,0,car,0,70,70,11,412.736039215,nV_V,1,412.74108827,414.028752968,0,2,8.21810786449,422.267422531,1,1,0.371024246793,5,6.0,32,bw,99.7806805336,2019_may_27_1708,017,256,20,5,ana,Experiment_EEG_version,20,
Nonliving_Things,../experiment_stimuli/bw_bc_bl/Nonliving_Things/Furniture/bookcase_13.jpg,Furniture,0,bookcase,0,71,71,8,424.371335952,nV_V,1,424.37650451,425.694126395,1,1,0.822023772402,426.536677862,3,0,0.200669016922,5,7.5,32,bw,99.7806805336,2019_may_27_1708,017,256,20,5,ana,Experiment_EEG_version,20,
Nonliving_Things,../experiment_stimuli/bw_bc_bl/Nonliving_Things/Kitchen_Uten/small-saucepan_9.jpg,Kitchen_Uten,0,small-saucepan,0,72,72,77,428.470243757,V_nV,2,428.475311373,429.762958232,1,2,2.23509027227,432.018588338,3,0,0.37104596803,5,6.0,32,bw,99.7806805336,2019_may_27_1708,017,256,20,5,ana,Experiment_EEG_version,20,
Living_Things,../experiment_stimuli/bw_bc_bl/Living_Things/Insects/scorpion_23.jpg,Insects,0,scorpion,0,73,73,73,434.122530447,nV_V,2,434.12773165,435.385193386,0,1,0.661712053465,436.067475088,3,0,0.120480548823,5,8.0,32,bw,99.7806805336,2019_may_27_1708,017,256,20,5,ana,Experiment_EEG_version,20,
Nonliving_Things,../experiment_stimuli/bw_bc_bl/Nonliving_Things/Furniture/chair_7.jpg,Furniture,0,chair,0,74,74,15,437.930815124,nV_V,1,437.935875142,439.173416573,1,1,0.641461990075,439.835431261,1,1,3.11700573564,5,6.0,32,bw,99.7806805336,2019_may_27_1708,017,256,20,5,ana,Experiment_EEG_version,20,
Living_Things,../experiment_stimuli/bw_bc_bl/Living_Things/Birds/raven_21.jpg,Birds,0,raven,0,75,75,67,444.685498722,nV_V,2,444.690633641,445.948150484,0,1,15.87475442,461.843475509,1,1,0.641619374976,5,6.0,32,bw,99.7806805336,2019_may_27_1708,017,256,20,5,ana,Experiment_EEG_version,20,
Nonliving_Things,../experiment_stimuli/bw_bc_bl/Nonliving_Things/Vehicles/boat_7.jpg,Vehicles,0,boat,0,76,76,7,464.217967491,nV_V,1,464.225902821,465.510676429,1,1,1.61373418593,467.144951117,3,0,0.841900213389,5,7.0,32,bw,99.7806805336,2019_may_27_1708,017,256,20,5,ana,Experiment_EEG_version,20,
Living_Things,../experiment_stimuli/bw_bc_bl/Living_Things/Birds/penguin_18.jpg,Birds,0,penguin,0,77,77,61,469.719923469,V_nV,1,469.725072316,470.982568115,1,1,0.531378513901,471.534499282,3,0,1.13270341349,5,6.5,32,bw,99.7806805336,2019_may_27_1708,017,256,20,5,ana,Experiment_EEG_version,20,
Living_Things,../experiment_stimuli/bw_bc_bl/Living_Things/Birds/magpie_20.jpg,Birds,0,magpie,0,78,78,51,474.400107013,nV_V,2,474.405255387,475.642703101,0,1,0.0603548272047,475.7236229,2,0,0.871969775297,5,6.0,32,bw,99.7806805336,2019_may_27_1708,017,256,20,5,ana,Experiment_EEG_version,20,
Living_Things,../experiment_stimuli/bw_bc_bl/Living_Things/Animals/turtle_24.jpg,Animals,0,turtle,0,79,79,90,478.328640623,nV_V,2,478.333857582,479.56122585,0,1,17.979314757,497.561096993,2,0,0.260799761163,5,7.0,32,bw,99.7806805336,2019_may_27_1708,017,256,20,5,ana,Experiment_EEG_version,20,
Living_Things,../experiment_stimuli/bw_bc_bl/Living_Things/Birds/goose_16.jpg,Birds,0,goose,0,80,80,34,499.554785745,nV_V,2,499.559958908,500.787385611,1,2,0.330949347001,501.138861867,1,1,0.401107717771,5,6.5,32,bw,99.7806805336,2019_may_27_1708,017,256,20,5,ana,Experiment_EEG_version,20,
Living_Things,../experiment_stimuli/bw_bc_bl/Living_Things/Insects/ladybird_10.jpg,Insects,0,ladybird,0,81,81,45,503.282913191,nV_V,2,503.288132233,504.535524616,1,2,0.431161716348,504.987226903,1,1,0.771898956737,5,7.0,32,bw,99.7806805336,2019_may_27_1708,017,256,20,5,ana,Experiment_EEG_version,20,
Living_Things,../experiment_stimuli/bw_bc_bl/Living_Things/Marine_creatures/dolphin_8.jpg,Marine_creatures,0,dolphin,0,82,82,23,507.492043056,V_nV,1,507.497265511,508.774743634,1,1,0.671698297374,509.466997324,1,1,0.310901878402,5,6.5,32,bw,99.7806805336,2019_may_27_1708,017,256,20,5,ana,Experiment_EEG_version,20,
Nonliving_Things,../experiment_stimuli/bw_bc_bl/Nonliving_Things/Tools/axe_2.jpg,Tools,0,axe,0,83,83,3,511.510783524,nV_V,1,511.51767673,512.79347041,1,1,0.932257306762,513.746264915,2,0,0.280830309028,5,6.0,32,bw,99.7806805336,2019_may_27_1708,017,256,20,5,ana,Experiment_EEG_version,20,
Nonliving_Things,../experiment_stimuli/bw_bc_bl/Nonliving_Things/Buildings/church_14.jpg,Buildings,0,church,0,84,84,17,515.760022394,nV_V,1,515.766977272,517.032683378,1,1,1.26298011537,518.316220605,3,0,6.52442325209,5,6.5,32,bw,99.7806805336,2019_may_27_1708,017,256,20,5,ana,Experiment_EEG_version,20,
Nonliving_Things,../experiment_stimuli/bw_bc_bl/Nonliving_Things/Furniture/Chest-of-drawers_9.jpg,Furniture,0,Chest-of-drawers,0,85,85,0,526.573524378,V_nV,2,526.579008612,527.816131616,0,1,6.77495847596,534.611646455,2,0,0.310746188741,5,6.5,32,bw,99.7806805336,2019_may_27_1708,017,256,20,5,ana,Experiment_EEG_version,20,
Living_Things,../experiment_stimuli/bw_bc_bl/Living_Things/Animals/cheetah_15.jpg,Animals,0,cheetah,0,86,86,16,536.655449681,nV_V,2,536.660839586,537.888027826,0,1,7.88738126634,545.795960832,1,1,0.250620418228,5,6.0,32,bw,99.7806805336,2019_may_27_1708,017,256,20,5,ana,Experiment_EEG_version,20,
Living_Things,../experiment_stimuli/bw_bc_bl/Living_Things/Animals/armadillo_9.jpg,Animals,0,armadillo,0,87,87,1,547.779623596,V_nV,1,547.784931486,549.022241232,0,2,0.581496333703,549.624275824,1,1,0.260803674813,5,6.0,32,bw,99.7806805336,2019_may_27_1708,017,256,20,5,ana,Experiment_EEG_version,20,
Nonliving_Things,../experiment_stimuli/bw_bc_bl/Nonliving_Things/Buildings/cathedral_1.jpg,Buildings,0,cathedral,0,88,88,14,551.61797676,nV_V,1,551.625124533,552.890649684,0,2,0.681735540973,553.592944622,1,1,0.21101159812,5,8.0,32,bw,99.7806805336,2019_may_27_1708,017,256,20,5,ana,Experiment_EEG_version,20,
Nonliving_Things,../experiment_stimuli/bw_bc_bl/Nonliving_Things/Buildings/mill_2.jpg,Buildings,0,mill,0,89,89,53,555.546518005,V_nV,2,555.551927905,556.81918553,1,2,2.11482343823,558.954563005,2,0,0.260789716151,5,7.0,32,bw,99.7806805336,2019_may_27_1708,017,256,20,5,ana,Experiment_EEG_version,20,
Living_Things,../experiment_stimuli/bw_bc_bl/Living_Things/Birds/barn-owl_0.jpg,Birds,0,barn-owl,0,90,90,4,560.958277245,nV_V,2,560.963804045,562.230946014,1,2,0.511338176904,562.762836096,2,0,0.260789776221,5,7.5,32,bw,99.7806805336,2019_may_27_1708,017,256,20,5,ana,Experiment_EEG_version,20,
Nonliving_Things,../experiment_stimuli/bw_bc_bl/Nonliving_Things/Kitchen_Uten/fondue_25.jpg,Kitchen_Uten,0,fondue,0,91,91,30,564.756559242,V_nV,2,564.761994999,566.009165739,0,1,1.68390042149,567.71363446,2,0,0.48126035952,5,6.5,32,bw,99.7806805336,2019_may_27_1708,017,256,20,5,ana,Experiment_EEG_version,20,
Living_Things,../experiment_stimuli/bw_bc_bl/Living_Things/Birds/sparrow_13.jpg,Birds,0,sparrow,0,92,92,79,569.927774867,V_nV,1,569.933183263,571.170381635,0,2,7.66689485614,578.857842264,1,1,1.84407638689,5,6.0,32,bw,99.7806805336,2019_may_27_1708,017,256,20,5,ana,Experiment_EEG_version,20,
Nonliving_Things,../experiment_stimuli/bw_bc_bl/Nonliving_Things/Buildings/palace_12.jpg,Buildings,0,palace,0,93,93,58,582.44499268,nV_V,1,582.450543138,583.707642082,0,2,0.611568583641,584.339767405,1,1,0.260786389001,5,6.0,32,bw,99.7806805336,2019_may_27_1708,017,256,20,5,ana,Experiment_EEG_version,20,
Nonliving_Things,../experiment_stimuli/bw_bc_bl/Nonliving_Things/Buildings/house_15.jpg,Buildings,0,house,0,94,94,41,586.343472284,V_nV,2,586.349026509,587.616157719,1,2,1.19282949576,588.829554473,2,0,0.240768935299,5,6.5,32,bw,99.7806805336,2019_may_27_1708,017,256,20,5,ana,Experiment_EEG_version,20,
Living_Things,../experiment_stimuli/bw_bc_bl/Living_Things/Marine_creatures/whale_14.jpg,Marine_creatures,0,whale,0,95,95,94,590.803181369,nV_V,2,590.808662832,592.065814324,1,2,0.791790761985,592.878167649,2,0,0.431179937441,5,6.5,32,bw,99.7806805336,2019_may_27_1708,017,256,20,5,ana,Experiment_EEG_version,20,
