category,probe_path,subcategory,fixation_duration,label,trials.thisRepN,trials.thisTrialN,trials.thisN,trials.thisIndex,image_onset_time,response_window,correctAns,probe_onset,discrim_resptime,response.corr,response.keys,response.rt,visible_resptime,visible.keys,visible.corr,visible.rt,probeFrames,jitter2,n_square,experiment_color,frameRate,date,session,image_size,premask_dur,probeFrames,participant,expName,postmask_dur,
Nonliving_Things,../experiment_stimuli/bw_bc_bl/Nonliving_Things/Buildings/house_2.jpg,Buildings,0,house,0,0,0,41,3.7163210474,nV_V,1,3.73792364402,4.99901489541,1,1,0.942297632573,5.97214311268,3,0,0.220707918284,5,6.0,32,bw,99.7778397771,2019_may_27_1558,011,256,20,5,ana,Experiment_EEG_version,20,
Nonliving_Things,../experiment_stimuli/bw_bc_bl/Nonliving_Things/Furniture/bookcase_3.jpg,Furniture,0,bookcase,0,1,1,8,7.92546392395,V_nV,2,7.93054583995,9.16807382321,1,2,1.25297814584,10.4415982801,2,0,0.31089196098,5,6.0,32,bw,99.7778397771,2019_may_27_1558,011,256,20,5,ana,Experiment_EEG_version,20,
Living_Things,../experiment_stimuli/bw_bc_bl/Living_Things/Animals/cheetah_8.jpg,Animals,0,cheetah,0,2,2,16,12.4853795699,V_nV,1,12.4903879722,13.7179623274,0,2,1.61373375729,15.3522587565,1,1,0.290853477549,5,8.0,32,bw,99.7778397771,2019_may_27_1558,011,256,20,5,ana,Experiment_EEG_version,20,
Nonliving_Things,../experiment_stimuli/bw_bc_bl/Nonliving_Things/Furniture/filling-cabinet_6.jpg,Furniture,0,filling-cabinet,0,3,3,29,17.3760094913,nV_V,1,17.3807872161,18.6186174208,1,1,1.07256212458,19.711712905,1,1,0.230718342355,5,6.0,32,bw,99.7778397771,2019_may_27_1558,011,256,20,5,ana,Experiment_EEG_version,20,
Nonliving_Things,../experiment_stimuli/bw_bc_bl/Nonliving_Things/Vehicles/motorbike_17.jpg,Vehicles,0,motorbike,0,4,4,54,21.6753546437,nV_V,1,21.68028675,22.9280038844,1,1,0.541420670692,23.4899746969,3,0,0.320923960302,5,6.5,32,bw,99.7778397771,2019_may_27_1558,011,256,20,5,ana,Experiment_EEG_version,20,
Nonliving_Things,../experiment_stimuli/bw_bc_bl/Nonliving_Things/Furniture/wardrobe_14.jpg,Furniture,0,wardrobe,0,5,5,93,25.5437924825,nV_V,1,25.5485515308,26.7763472325,0,2,0.180636232486,26.9775611553,1,1,0.240749063436,5,6.0,32,bw,99.7778397771,2019_may_27_1558,011,256,20,5,ana,Experiment_EEG_version,20,
Nonliving_Things,../experiment_stimuli/bw_bc_bl/Nonliving_Things/Kitchen_Uten/pot_9.jpg,Kitchen_Uten,0,pot,0,6,6,66,28.9511896158,nV_V,1,28.9559931748,30.2138293597,1,1,0.68155298708,30.915947312,3,0,0.230566814542,5,6.0,32,bw,99.7778397771,2019_may_27_1558,011,256,20,5,ana,Experiment_EEG_version,20,
Living_Things,../experiment_stimuli/bw_bc_bl/Living_Things/Animals/zebra_15.jpg,Animals,0,zebra,0,7,7,95,32.879716462,nV_V,2,32.8853901855,34.1122983324,0,1,0.290874345461,34.4237394019,1,1,0.23072253773,5,6.0,32,bw,99.7778397771,2019_may_27_1558,011,256,20,5,ana,Experiment_EEG_version,20,
Living_Things,../experiment_stimuli/bw_bc_bl/Living_Things/Birds/pelican_2.jpg,Birds,0,pelican,0,8,8,60,36.3873648287,V_nV,1,36.3922107897,37.6299461573,1,1,0.671528442996,38.3220292833,1,1,0.290863025934,5,6.0,32,bw,99.7778397771,2019_may_27_1558,011,256,20,5,ana,Experiment_EEG_version,20,
Living_Things,../experiment_stimuli/bw_bc_bl/Living_Things/Marine_creatures/dolphin_21.jpg,Marine_creatures,0,dolphin,0,9,9,23,40.3459477262,nV_V,2,40.3508961967,41.6186253603,0,1,0.651491591008,42.2906844197,2,0,0.320932580624,5,6.5,32,bw,99.7778397771,2019_may_27_1558,011,256,20,5,ana,Experiment_EEG_version,20,
Living_Things,../experiment_stimuli/bw_bc_bl/Living_Things/Birds/goldfinch_20.jpg,Birds,0,goldfinch,0,10,10,33,44.3446423346,V_nV,1,44.3503522566,45.6072894735,1,1,0.5313861717,46.1592214638,2,0,0.591523930663,5,6.0,32,bw,99.7778397771,2019_may_27_1558,011,256,20,5,ana,Experiment_EEG_version,20,
Nonliving_Things,../experiment_stimuli/bw_bc_bl/Nonliving_Things/Buildings/factory_26.jpg,Buildings,0,factory,0,11,11,28,48.4836396219,V_nV,2,48.4884293089,49.7362666598,0,1,0.982373070205,50.7392127921,2,0,0.340970124351,5,7.5,32,bw,99.7778397771,2019_may_27_1558,011,256,20,5,ana,Experiment_EEG_version,20,
Nonliving_Things,../experiment_stimuli/bw_bc_bl/Nonliving_Things/Kitchen_Uten/fondue_14.jpg,Kitchen_Uten,0,fondue,0,12,12,30,52.8130506857,V_nV,2,52.8179065073,54.0556511679,1,2,1.75403778185,55.8302280582,1,1,0.501309406944,5,6.5,32,bw,99.7778397771,2019_may_27_1558,011,256,20,5,ana,Experiment_EEG_version,20,
Nonliving_Things,../experiment_stimuli/bw_bc_bl/Nonliving_Things/Musical_Inst/violin_15.jpg,Musical_Inst,0,violin,0,13,13,92,58.0644630229,V_nV,2,58.0693884934,59.3371488673,1,2,0.741837454494,60.0995526141,2,0,0.290851409547,5,7.0,32,bw,99.7778397771,2019_may_27_1558,011,256,20,5,ana,Experiment_EEG_version,20,
Nonliving_Things,../experiment_stimuli/bw_bc_bl/Nonliving_Things/Furniture/couch_13.jpg,Furniture,0,couch,0,14,14,19,62.1232948375,V_nV,2,62.1282068577,63.3859492321,1,2,0.69172761566,64.0982655042,3,0,0.250614734134,5,6.5,32,bw,99.7778397771,2019_may_27_1558,011,256,20,5,ana,Experiment_EEG_version,20,
Living_Things,../experiment_stimuli/bw_bc_bl/Living_Things/Birds/hen_16.jpg,Birds,0,hen,0,15,15,38,66.0818962196,V_nV,1,66.0866701063,67.3144777592,0,2,0.711776738521,68.0468120829,1,1,0.250785739161,5,6.0,32,bw,99.7778397771,2019_may_27_1558,011,256,20,5,ana,Experiment_EEG_version,20,
Living_Things,../experiment_stimuli/bw_bc_bl/Living_Things/Marine_creatures/sperm-whale_20.jpg,Marine_creatures,0,sperm-whale,0,16,16,80,70.0304808768,nV_V,2,70.0353093755,71.2931316847,1,2,0.892163880868,72.2058394928,1,1,0.250788938254,5,6.0,32,bw,99.7778397771,2019_may_27_1558,011,256,20,5,ana,Experiment_EEG_version,20,
Living_Things,../experiment_stimuli/bw_bc_bl/Living_Things/Birds/seagull_23.jpg,Birds,0,seagull,0,17,17,74,74.1895219071,V_nV,1,74.1944894523,75.4822350326,1,1,0.892165598692,76.3950040881,2,0,0.180609500268,5,6.5,32,bw,99.7778397771,2019_may_27_1558,011,256,20,5,ana,Experiment_EEG_version,20,
Living_Things,../experiment_stimuli/bw_bc_bl/Living_Things/Marine_creatures/killer-whale_7.jpg,Marine_creatures,0,killer-whale,0,18,18,43,78.3084784097,V_nV,1,78.3147992366,79.5911828137,1,1,0.330957658822,79.9426974487,1,1,4.71046873787,5,6.0,32,bw,99.7778397771,2019_may_27_1558,011,256,20,5,ana,Experiment_EEG_version,20,
Nonliving_Things,../experiment_stimuli/bw_bc_bl/Nonliving_Things/Furniture/armchair_15.jpg,Furniture,0,armchair,0,19,19,2,86.3860501966,V_nV,2,86.3921802666,87.6987960653,1,2,0.882154317107,88.6015124489,3,0,0.350983728655,5,6.0,32,bw,99.7778397771,2019_may_27_1558,011,256,20,5,ana,Experiment_EEG_version,20,
Nonliving_Things,../experiment_stimuli/bw_bc_bl/Nonliving_Things/Musical_Inst/saxophone_24.jpg,Musical_Inst,0,saxophone,0,20,20,72,90.6853863341,V_nV,2,90.6903460864,91.9781008093,1,2,0.47126099118,92.4699154198,3,0,0.25075899926,5,6.0,32,bw,99.7778397771,2019_may_27_1558,011,256,20,5,ana,Experiment_EEG_version,20,
Nonliving_Things,../experiment_stimuli/bw_bc_bl/Nonliving_Things/Vehicles/plane_7.jpg,Vehicles,0,plane,0,21,21,64,94.4535933,V_nV,2,94.4588483225,95.7162268185,1,2,0.641626679571,96.3783932189,2,0,0.371071099071,5,6.0,32,bw,99.7778397771,2019_may_27_1558,011,256,20,5,ana,Experiment_EEG_version,20,
Nonliving_Things,../experiment_stimuli/bw_bc_bl/Nonliving_Things/Kitchen_Uten/small-saucepan_3.jpg,Kitchen_Uten,0,small-saucepan,0,22,22,77,98.4823370231,V_nV,2,98.4881845112,99.7349616592,1,2,0.481275095837,100.236793638,3,0,0.210939384997,5,6.0,32,bw,99.7778397771,2019_may_27_1558,011,256,20,5,ana,Experiment_EEG_version,20,
Nonliving_Things,../experiment_stimuli/bw_bc_bl/Nonliving_Things/Vehicles/train_18.jpg,Vehicles,0,train,0,23,23,87,102.180378569,nV_V,1,102.185296852,103.412971229,1,1,0.230577344541,103.664093358,1,1,0.370877195848,5,6.5,32,bw,99.7778397771,2019_may_27_1558,011,256,20,5,ana,Experiment_EEG_version,20,
Nonliving_Things,../experiment_stimuli/bw_bc_bl/Nonliving_Things/Tools/axe_13.jpg,Tools,0,axe,0,24,24,3,105.768189671,nV_V,1,105.773126506,107.020813036,0,2,0.240754067199,107.282121696,1,1,0.190483772196,5,6.0,32,bw,99.7778397771,2019_may_27_1558,011,256,20,5,ana,Experiment_EEG_version,20,
Nonliving_Things,../experiment_stimuli/bw_bc_bl/Nonliving_Things/Furniture/rocking-chair_16.jpg,Furniture,0,rocking-chair,0,25,25,69,109.205652411,nV_V,1,109.210621198,110.478321941,1,1,0.852076571435,111.360970206,3,0,0.641620792216,5,6.0,32,bw,99.7778397771,2019_may_27_1558,011,256,20,5,ana,Experiment_EEG_version,20,
Nonliving_Things,../experiment_stimuli/bw_bc_bl/Nonliving_Things/Furniture/sofa_11.jpg,Furniture,0,sofa,0,26,26,78,113.735501627,nV_V,1,113.740355674,114.978105358,1,1,0.711777881486,115.720457452,1,1,0.320915667107,5,6.0,32,bw,99.7778397771,2019_may_27_1558,011,256,20,5,ana,Experiment_EEG_version,20,
Nonliving_Things,../experiment_stimuli/bw_bc_bl/Nonliving_Things/Vehicles/van_9.jpg,Vehicles,0,van,0,27,27,91,117.774279497,V_nV,2,117.779079541,119.036928075,1,2,0.621579522733,119.679067852,3,0,0.351022788323,5,6.5,32,bw,99.7778397771,2019_may_27_1558,011,256,20,5,ana,Experiment_EEG_version,20,
Living_Things,../experiment_stimuli/bw_bc_bl/Living_Things/Birds/partridge_4.jpg,Birds,0,partridge,0,28,28,59,121.762965831,nV_V,2,121.768841612,122.995544284,1,2,1.08258701465,124.098712876,1,1,0.260784727754,5,6.0,32,bw,99.7778397771,2019_may_27_1558,011,256,20,5,ana,Experiment_EEG_version,20,
Nonliving_Things,../experiment_stimuli/bw_bc_bl/Nonliving_Things/Musical_Inst/tuba_2.jpg,Musical_Inst,0,tuba,0,29,29,89,126.092360012,V_nV,2,126.098393572,127.334966799,0,1,0.571488582296,127.927068439,1,1,0.260787994601,5,6.0,32,bw,99.7778397771,2019_may_27_1558,011,256,20,5,ana,Experiment_EEG_version,20,
Living_Things,../experiment_stimuli/bw_bc_bl/Living_Things/Animals/cow_22.jpg,Animals,0,cow,0,30,30,20,129.920682737,V_nV,1,129.925701932,131.173313906,0,2,0.74186035688,131.935726469,2,0,0.391075053252,5,6.0,32,bw,99.7778397771,2019_may_27_1558,011,256,20,5,ana,Experiment_EEG_version,20,
Nonliving_Things,../experiment_stimuli/bw_bc_bl/Nonliving_Things/Vehicles/bus_10.jpg,Vehicles,0,bus,0,31,31,9,134.059691641,V_nV,2,134.064627735,135.302291138,1,2,0.621428167913,135.944278278,2,0,0.381067189155,5,6.5,32,bw,99.7778397771,2019_may_27_1558,011,256,20,5,ana,Experiment_EEG_version,20,
Living_Things,../experiment_stimuli/bw_bc_bl/Living_Things/Birds/penguin_23.jpg,Birds,0,penguin,0,32,32,61,138.058381926,V_nV,1,138.064232857,139.29097742,1,1,0.952298504533,140.263847171,1,1,2.14487897744,5,6.0,32,bw,99.7778397771,2019_may_27_1558,011,256,20,5,ana,Experiment_EEG_version,20,
Living_Things,../experiment_stimuli/bw_bc_bl/Living_Things/Animals/giraffe_26.jpg,Animals,0,giraffe,0,33,33,32,144.141609053,nV_V,2,144.146504009,145.404253342,1,2,0.952306688763,146.377115864,3,0,0.230735620251,5,6.0,32,bw,99.7778397771,2019_may_27_1558,011,256,20,5,ana,Experiment_EEG_version,20,
Nonliving_Things,../experiment_stimuli/bw_bc_bl/Nonliving_Things/Furniture/bedside-table_5.jpg,Furniture,0,bedside-table,0,34,34,6,148.340731438,nV_V,1,148.345636307,149.573330454,0,2,1.84427288384,151.438161097,1,1,0.79195336136,5,6.5,32,bw,99.7778397771,2019_may_27_1558,011,256,20,5,ana,Experiment_EEG_version,20,
Living_Things,../experiment_stimuli/bw_bc_bl/Living_Things/Birds/ostrich_24.jpg,Birds,0,ostrich,0,35,35,56,153.962976295,nV_V,2,153.968855489,155.205563578,0,1,1.1828017747,156.4089309,1,1,0.310898257885,5,6.5,32,bw,99.7778397771,2019_may_27_1558,011,256,20,5,ana,Experiment_EEG_version,20,
Living_Things,../experiment_stimuli/bw_bc_bl/Living_Things/Animals/elephant_25.jpg,Animals,0,elephant,0,36,36,27,158.452726115,nV_V,2,158.457734423,159.705343473,1,2,0.842060388066,160.567966025,2,0,0.260804426391,5,6.0,32,bw,99.7778397771,2019_may_27_1558,011,256,20,5,ana,Experiment_EEG_version,20,
Living_Things,../experiment_stimuli/bw_bc_bl/Living_Things/Insects/dragonfly_1.jpg,Insects,0,dragonfly,0,37,37,24,162.561657746,nV_V,2,162.566521383,163.804265612,0,1,2.87648047367,166.701288976,1,1,0.361028423533,5,6.0,32,bw,99.7778397771,2019_may_27_1558,011,256,20,5,ana,Experiment_EEG_version,20,
Living_Things,../experiment_stimuli/bw_bc_bl/Living_Things/Insects/butterfly_15.jpg,Insects,0,butterfly,0,38,38,10,168.795201878,nV_V,2,168.800120691,170.067874907,0,1,3.27719020494,173.365633577,2,0,0.300876612077,5,8.0,32,bw,99.7778397771,2019_may_27_1558,011,256,20,5,ana,Experiment_EEG_version,20,
Living_Things,../experiment_stimuli/bw_bc_bl/Living_Things/Animals/horse_10.jpg,Animals,0,horse,0,39,39,40,175.399595639,nV_V,2,175.405433172,176.662211936,1,2,0.631598834181,177.314360845,3,0,0.240780889988,5,6.0,32,bw,99.7778397771,2019_may_27_1558,011,256,20,5,ana,Experiment_EEG_version,20,
Living_Things,../experiment_stimuli/bw_bc_bl/Living_Things/Animals/armadillo_5.jpg,Animals,0,armadillo,0,40,40,1,179.288033402,nV_V,2,179.294959965,180.530624076,1,2,0.371031738818,180.922210863,1,1,0.170592034468,5,7.0,32,bw,99.7778397771,2019_may_27_1558,011,256,20,5,ana,Experiment_EEG_version,20,
Living_Things,../experiment_stimuli/bw_bc_bl/Living_Things/Birds/barn-owl_16.jpg,Birds,0,barn-owl,0,41,41,4,182.82571626,nV_V,2,182.830804683,184.088358124,0,1,0.751862829784,184.860777066,1,1,0.260813877685,5,6.5,32,bw,99.7778397771,2019_may_27_1558,011,256,20,5,ana,Experiment_EEG_version,20,
Nonliving_Things,../experiment_stimuli/bw_bc_bl/Nonliving_Things/Furniture/Chest-of-drawers_5.jpg,Furniture,0,Chest-of-drawers,0,42,42,0,186.854476193,V_nV,2,186.859313966,188.127136956,1,2,0.852082852973,188.99976309,1,1,0.3409625981,5,6.5,32,bw,99.7778397771,2019_may_27_1558,011,256,20,5,ana,Experiment_EEG_version,20,
Nonliving_Things,../experiment_stimuli/bw_bc_bl/Nonliving_Things/Kitchen_Uten/cup_15.jpg,Kitchen_Uten,0,cup,0,43,43,22,191.073641731,nV_V,1,191.078484139,192.366355894,1,1,0.771911798511,193.158812688,3,0,0.591527919285,5,6.0,32,bw,99.7778397771,2019_may_27_1558,011,256,20,5,ana,Experiment_EEG_version,20,
Living_Things,../experiment_stimuli/bw_bc_bl/Living_Things/Birds/sparrow_1.jpg,Birds,0,sparrow,0,44,44,79,195.483225835,nV_V,2,195.489084875,196.745876383,0,1,2.39527186891,199.161723732,2,0,0.361135267885,5,6.5,32,bw,99.7778397771,2019_may_27_1558,011,256,20,5,ana,Experiment_EEG_version,20,
Nonliving_Things,../experiment_stimuli/bw_bc_bl/Nonliving_Things/Buildings/castle_2.jpg,Buildings,0,castle,0,45,45,12,201.255787742,nV_V,1,201.260674611,202.508421144,1,1,4.3296352597,206.858588557,2,0,1.68388806051,5,6.0,32,bw,99.7778397771,2019_may_27_1558,011,256,20,5,ana,Experiment_EEG_version,20,
Living_Things,../experiment_stimuli/bw_bc_bl/Living_Things/Animals/lynx_22.jpg,Animals,0,lynx,0,46,46,50,210.275403473,V_nV,1,210.280361252,211.517993117,1,1,0.300886600744,211.839419487,1,1,0.310899931006,5,6.0,32,bw,99.7778397771,2019_may_27_1558,011,256,20,5,ana,Experiment_EEG_version,20,
Living_Things,../experiment_stimuli/bw_bc_bl/Living_Things/Birds/rooster_22.jpg,Birds,0,rooster,0,47,47,70,213.883249803,V_nV,1,213.888152504,215.155903727,0,2,2.15491719847,217.341384379,1,1,0.872125348076,5,6.5,32,bw,99.7778397771,2019_may_27_1558,011,256,20,5,ana,Experiment_EEG_version,20,
Nonliving_Things,../experiment_stimuli/bw_bc_bl/Nonliving_Things/Furniture/table_3.jpg,Furniture,0,table,0,48,48,81,219.946417887,V_nV,2,219.951354549,221.249155177,1,2,0.902189203538,222.171894146,3,0,0.390921555692,5,6.0,32,bw,99.7778397771,2019_may_27_1558,011,256,20,5,ana,Experiment_EEG_version,20,
Nonliving_Things,../experiment_stimuli/bw_bc_bl/Nonliving_Things/Vehicles/ship_11.jpg,Vehicles,0,ship,0,49,49,76,224.295873453,nV_V,1,224.300779752,225.578572365,1,1,0.601542606717,226.200662395,3,0,0.29086451116,5,6.5,32,bw,99.7778397771,2019_may_27_1558,011,256,20,5,ana,Experiment_EEG_version,20,
Living_Things,../experiment_stimuli/bw_bc_bl/Living_Things/Insects/ladybird_8.jpg,Insects,0,ladybird,0,50,50,45,228.224445141,V_nV,1,228.231560607,229.477045288,0,2,1.22288699029,230.72050557,2,0,0.41111229267,5,6.0,32,bw,99.7778397771,2019_may_27_1558,011,256,20,5,ana,Experiment_EEG_version,20,
Living_Things,../experiment_stimuli/bw_bc_bl/Living_Things/Marine_creatures/shark_24.jpg,Marine_creatures,0,shark,0,51,51,75,232.86451753,V_nV,1,232.869371224,234.107106735,0,2,1.59369781101,235.721355045,1,1,1.99457969377,5,7.0,32,bw,99.7778397771,2019_may_27_1558,011,256,20,5,ana,Experiment_EEG_version,20,
Living_Things,../experiment_stimuli/bw_bc_bl/Living_Things/Birds/magpie_25.jpg,Birds,0,magpie,0,52,52,51,239.448816715,V_nV,1,239.453833346,240.711464474,0,2,0.521368243964,241.263428437,3,0,0.371030329028,5,7.0,32,bw,99.7778397771,2019_may_27_1558,011,256,20,5,ana,Experiment_EEG_version,20,
Living_Things,../experiment_stimuli/bw_bc_bl/Living_Things/Birds/pigeon_12.jpg,Birds,0,pigeon,0,53,53,63,243.367335513,nV_V,2,243.373313544,244.609949912,1,2,1.3231244192,245.953640308,3,0,0.240746841766,5,6.5,32,bw,99.7778397771,2019_may_27_1558,011,256,20,5,ana,Experiment_EEG_version,20,
Living_Things,../experiment_stimuli/bw_bc_bl/Living_Things/Birds/toucan_16.jpg,Birds,0,toucan,0,54,54,85,247.92726829,nV_V,2,247.932135232,249.169853047,0,1,0.40110357129,249.591514813,1,1,0.280847545248,5,6.5,32,bw,99.7778397771,2019_may_27_1558,011,256,20,5,ana,Experiment_EEG_version,20,
Nonliving_Things,../experiment_stimuli/bw_bc_bl/Nonliving_Things/Vehicles/tractor_18.jpg,Vehicles,0,tractor,0,55,55,86,251.605250248,nV_V,1,251.610276356,252.867894672,1,1,0.621669344837,253.510126903,3,0,0.200707155745,5,6.0,32,bw,99.7778397771,2019_may_27_1558,011,256,20,5,ana,Experiment_EEG_version,20,
Nonliving_Things,../experiment_stimuli/bw_bc_bl/Nonliving_Things/Furniture/bed_10.jpg,Furniture,0,bed,0,56,56,5,255.443616581,V_nV,2,255.448361464,256.686198101,0,1,0.371036960743,257.077805308,1,1,0.541420306079,5,6.5,32,bw,99.7778397771,2019_may_27_1558,011,256,20,5,ana,Experiment_EEG_version,20,
Living_Things,../experiment_stimuli/bw_bc_bl/Living_Things/Birds/kiwi_22.jpg,Birds,0,kiwi,0,57,57,44,259.352095019,V_nV,1,259.358085598,260.614734628,0,2,1.59369924013,262.22901758,3,0,0.551421531476,5,6.0,32,bw,99.7778397771,2019_may_27_1558,011,256,20,5,ana,Experiment_EEG_version,20,
Living_Things,../experiment_stimuli/bw_bc_bl/Living_Things/Marine_creatures/whale_20.jpg,Marine_creatures,0,whale,0,58,58,94,264.513307896,nV_V,2,264.518139582,265.745896431,1,2,2.07474186155,267.841184566,2,0,3.77845556359,5,6.0,32,bw,99.7778397771,2019_may_27_1558,011,256,20,5,ana,Experiment_EEG_version,20,
Nonliving_Things,../experiment_stimuli/bw_bc_bl/Nonliving_Things/Kitchen_Uten/saucepan_13.jpg,Kitchen_Uten,0,saucepan,0,59,59,71,273.352528406,V_nV,2,273.357338288,274.595146967,0,1,2.66602095799,277.281724908,3,0,3.39761495008,5,6.5,32,bw,99.7778397771,2019_may_27_1558,011,256,20,5,ana,Experiment_EEG_version,20,
Living_Things,../experiment_stimuli/bw_bc_bl/Living_Things/Marine_creatures/manatee_26.jpg,Marine_creatures,0,manatee,0,60,60,52,282.412230466,V_nV,1,282.418310834,283.6448094,0,2,2.41461437801,286.08089506,2,0,0.761732222512,5,6.5,32,bw,99.7778397771,2019_may_27_1558,011,256,20,5,ana,Experiment_EEG_version,20,
Living_Things,../experiment_stimuli/bw_bc_bl/Living_Things/Animals/tiger_4.jpg,Animals,0,tiger,0,61,61,84,288.575624964,nV_V,2,288.580682068,289.808216563,0,1,0.320969970664,290.149746051,1,1,0.270667379256,5,6.0,32,bw,99.7778397771,2019_may_27_1558,011,256,20,5,ana,Experiment_EEG_version,20,
Nonliving_Things,../experiment_stimuli/bw_bc_bl/Nonliving_Things/Musical_Inst/piano__4.jpg,Musical_Inst,0,piano,0,62,62,62,292.153399679,nV_V,1,292.159414886,293.406047149,0,2,0.340970455203,293.767547273,1,1,0.210681351135,5,7.0,32,bw,99.7778397771,2019_may_27_1558,011,256,20,5,ana,Experiment_EEG_version,20,
Nonliving_Things,../experiment_stimuli/bw_bc_bl/Nonliving_Things/Musical_Inst/guitar_7.jpg,Musical_Inst,0,guitar,0,63,63,36,295.721176298,nV_V,1,295.727330713,297.003864206,1,1,1.69390807161,298.71834155,3,0,1.1527358708,5,6.5,32,bw,99.7778397771,2019_may_27_1558,011,256,20,5,ana,Experiment_EEG_version,20,
Nonliving_Things,../experiment_stimuli/bw_bc_bl/Nonliving_Things/Furniture/lamp_11.jpg,Furniture,0,lamp,0,64,64,46,301.603950852,nV_V,1,301.609171258,302.866598957,0,2,2.75609553605,305.643286641,1,1,0.471250946634,5,6.0,32,bw,99.7778397771,2019_may_27_1558,011,256,20,5,ana,Experiment_EEG_version,20,
Nonliving_Things,../experiment_stimuli/bw_bc_bl/Nonliving_Things/Tools/hammer_15.jpg,Tools,0,hammer,0,65,65,37,307.847549795,nV_V,1,307.85250137,309.13021503,0,2,2.83640289353,311.997210869,1,1,4.11917493935,5,8.0,32,bw,99.7778397771,2019_may_27_1558,011,256,20,5,ana,Experiment_EEG_version,20,
Living_Things,../experiment_stimuli/bw_bc_bl/Living_Things/Marine_creatures/narwhal_4.jpg,Marine_creatures,0,narwhal,0,66,66,55,317.849272946,nV_V,2,317.855611325,319.162028679,1,2,2.08475770685,321.267328987,2,0,0.461244123522,5,6.5,32,bw,99.7778397771,2019_may_27_1558,011,256,20,5,ana,Experiment_EEG_version,20,
Nonliving_Things,../experiment_stimuli/bw_bc_bl/Nonliving_Things/Buildings/granary_3.jpg,Buildings,0,granary,0,67,67,35,323.461479762,V_nV,2,323.466665805,324.774232116,1,2,1.15273814532,325.947507343,3,0,0.340963932918,5,7.0,32,bw,99.7778397771,2019_may_27_1558,011,256,20,5,ana,Experiment_EEG_version,20,
Living_Things,../experiment_stimuli/bw_bc_bl/Living_Things/Birds/duck_8.jpg,Birds,0,duck,0,68,68,26,328.021390089,V_nV,1,328.026444419,329.304078806,1,1,0.621599575039,329.946237113,3,0,0.20072816289,5,6.5,32,bw,99.7778397771,2019_may_27_1558,011,256,20,5,ana,Experiment_EEG_version,20,
Living_Things,../experiment_stimuli/bw_bc_bl/Living_Things/Insects/scorpion_11.jpg,Insects,0,scorpion,0,69,69,73,331.879773,nV_V,2,331.884840548,333.122384543,1,2,0.0904459226876,333.233385855,1,1,0.320924990345,5,6.0,32,bw,99.7778397771,2019_may_27_1558,011,256,20,5,ana,Experiment_EEG_version,20,
Living_Things,../experiment_stimuli/bw_bc_bl/Living_Things/Marine_creatures/pomfret_5.jpg,Marine_creatures,0,pomfret,0,70,70,65,335.287193453,nV_V,2,335.292133149,336.549830896,1,2,2.84642212209,339.416793972,2,0,1.56363120419,5,6.0,32,bw,99.7778397771,2019_may_27_1558,011,256,20,5,ana,Experiment_EEG_version,20,
Living_Things,../experiment_stimuli/bw_bc_bl/Living_Things/Birds/goose_17.jpg,Birds,0,goose,0,71,71,34,342.713327073,nV_V,2,342.718290562,343.965978487,1,2,9.70133578754,353.687853187,1,1,0.621423243079,5,6.0,32,bw,99.7778397771,2019_may_27_1558,011,256,20,5,ana,Experiment_EEG_version,20,
Living_Things,../experiment_stimuli/bw_bc_bl/Living_Things/Birds/raven_10.jpg,Birds,0,raven,0,72,72,67,356.042306392,nV_V,2,356.048801461,357.304957546,1,2,2.26516373595,359.590665578,3,0,0.371029415634,5,7.0,32,bw,99.7778397771,2019_may_27_1558,011,256,20,5,ana,Experiment_EEG_version,20,
Nonliving_Things,../experiment_stimuli/bw_bc_bl/Nonliving_Things/Buildings/mill_17.jpg,Buildings,0,mill,0,73,73,53,361.69459421,V_nV,2,361.699671156,362.927190546,1,2,0.551431039115,363.499170824,1,1,1.15273495717,5,8.0,32,bw,99.7778397771,2019_may_27_1558,011,256,20,5,ana,Experiment_EEG_version,20,
Nonliving_Things,../experiment_stimuli/bw_bc_bl/Nonliving_Things/Buildings/church_18.jpg,Buildings,0,church,0,74,74,17,366.384791746,V_nV,2,366.389826847,367.657478188,1,2,0.972356329905,368.650394292,3,0,0.330787909217,5,6.5,32,bw,99.7778397771,2019_may_27_1558,011,256,20,5,ana,Experiment_EEG_version,20,
Nonliving_Things,../experiment_stimuli/bw_bc_bl/Nonliving_Things/Furniture/lectern_7.jpg,Furniture,0,lectern,0,75,75,47,370.724238038,V_nV,2,370.729380664,371.966839178,1,2,0.401117664995,372.38851117,3,0,0.35099257878,5,6.0,32,bw,99.7778397771,2019_may_27_1558,011,256,20,5,ana,Experiment_EEG_version,20,
Living_Things,../experiment_stimuli/bw_bc_bl/Living_Things/Birds/owl_22.jpg,Birds,0,owl,0,76,76,57,374.472387453,nV_V,2,374.477586578,375.704965049,0,1,1.78411790729,377.509642985,2,0,2.16493944242,5,6.0,32,bw,99.7778397771,2019_may_27_1558,011,256,20,5,ana,Experiment_EEG_version,20,
Nonliving_Things,../experiment_stimuli/bw_bc_bl/Nonliving_Things/Musical_Inst/drum_15.jpg,Musical_Inst,0,drum,0,77,77,25,381.407462764,V_nV,2,381.412581668,382.640047826,0,1,11.3849988929,394.045592526,1,1,0.491300099296,5,6.5,32,bw,99.7778397771,2019_may_27_1558,011,256,20,5,ana,Experiment_EEG_version,20,
Nonliving_Things,../experiment_stimuli/bw_bc_bl/Nonliving_Things/Furniture/chair_15.jpg,Furniture,0,chair,0,78,78,15,396.269766395,nV_V,1,396.274991229,397.532431552,1,1,1.13268758263,398.68565531,2,0,0.791939011542,5,6.5,32,bw,99.7778397771,2019_may_27_1558,011,256,20,5,ana,Experiment_EEG_version,20,
Living_Things,../experiment_stimuli/bw_bc_bl/Living_Things/Animals/lioness_9.jpg,Animals,0,lioness,0,79,79,48,401.210513473,V_nV,1,401.217208822,402.473158567,0,2,4.94098933134,407.434725608,1,1,4.00894728885,5,6.5,32,bw,99.7778397771,2019_may_27_1558,011,256,20,5,ana,Experiment_EEG_version,20,
Living_Things,../experiment_stimuli/bw_bc_bl/Living_Things/Marine_creatures/crab_20.jpg,Marine_creatures,0,crab,0,80,80,21,413.176536692,nV_V,2,413.181819857,414.439177421,1,2,8.42855699291,422.888310319,1,1,0.801968574524,5,6.0,32,bw,99.7778397771,2019_may_27_1558,011,256,20,5,ana,Experiment_EEG_version,20,
Living_Things,../experiment_stimuli/bw_bc_bl/Living_Things/Birds/hummingbird_25.jpg,Birds,0,hummingbird,0,81,81,42,425.423201332,nV_V,2,425.428459982,426.725886506,0,1,1.09262314136,427.839070187,2,0,0.350987649988,5,6.5,32,bw,99.7778397771,2019_may_27_1558,011,256,20,5,ana,Experiment_EEG_version,20,
Living_Things,../experiment_stimuli/bw_bc_bl/Living_Things/Animals/hippopotamus_12.jpg,Animals,0,hippopotamus,0,82,82,39,429.922955745,nV_V,2,429.928273996,431.205637977,1,2,0.701758897165,431.927947693,3,0,0.300874755252,5,6.0,32,bw,99.7778397771,2019_may_27_1558,011,256,20,5,ana,Experiment_EEG_version,20,
Nonliving_Things,../experiment_stimuli/bw_bc_bl/Nonliving_Things/Musical_Inst/trumpet_3.jpg,Musical_Inst,0,trumpet,0,83,83,88,433.961723314,nV_V,1,433.967220746,435.214347288,1,1,0.541403689887,435.776290872,2,0,1.66386278742,5,7.0,32,bw,99.7778397771,2019_may_27_1558,011,256,20,5,ana,Experiment_EEG_version,20,
Nonliving_Things,../experiment_stimuli/bw_bc_bl/Nonliving_Things/Kitchen_Uten/teapot_9.jpg,Kitchen_Uten,0,teapot,0,84,84,83,439.173055093,nV_V,1,439.178460877,440.41565694,1,1,5.21157208015,445.647782282,1,1,1.00240225322,5,7.0,32,bw,99.7778397771,2019_may_27_1558,011,256,20,5,ana,Experiment_EEG_version,20,
Nonliving_Things,../experiment_stimuli/bw_bc_bl/Nonliving_Things/Vehicles/boat_1.jpg,Vehicles,0,boat,0,85,85,7,448.383074406,V_nV,2,448.388492877,449.645723436,1,2,0.771911377087,450.448221958,3,0,2.16493264912,5,6.5,32,bw,99.7778397771,2019_may_27_1558,011,256,20,5,ana,Experiment_EEG_version,20,
Living_Things,../experiment_stimuli/bw_bc_bl/Living_Things/Animals/tapir_23.jpg,Animals,0,tapir,0,86,86,82,454.356059183,nV_V,2,454.362975231,455.598665579,0,1,0.481271223864,456.100493817,2,0,0.561437726254,5,7.0,32,bw,99.7778397771,2019_may_27_1558,011,256,20,5,ana,Experiment_EEG_version,20,
Living_Things,../experiment_stimuli/bw_bc_bl/Living_Things/Marine_creatures/lobster_22.jpg,Marine_creatures,0,lobster,0,87,87,49,458.404873273,nV_V,2,458.410358672,459.637456249,0,1,0.100462185219,459.758474012,1,1,0.421149487374,5,6.0,32,bw,99.7778397771,2019_may_27_1558,011,256,20,5,ana,Experiment_EEG_version,20,
Nonliving_Things,../experiment_stimuli/bw_bc_bl/Nonliving_Things/Kitchen_Uten/frying-pan_16.jpg,Kitchen_Uten,0,frying-pan,0,88,88,31,461.922531256,V_nV,2,461.927938115,463.175137828,1,2,0.701756573748,463.897460588,1,1,0.340979827335,5,6.5,32,bw,99.7778397771,2019_may_27_1558,011,256,20,5,ana,Experiment_EEG_version,20,
Living_Things,../experiment_stimuli/bw_bc_bl/Living_Things/Animals/turtle_1.jpg,Animals,0,turtle,0,89,89,90,465.97131767,nV_V,2,465.976721773,467.264025224,1,2,0.862105521839,468.146685252,2,0,1.06253353483,5,6.0,32,bw,99.7778397771,2019_may_27_1558,011,256,20,5,ana,Experiment_EEG_version,20,
Nonliving_Things,../experiment_stimuli/bw_bc_bl/Nonliving_Things/Vehicles/car_21.jpg,Vehicles,0,car,0,90,90,11,470.9421188,nV_V,1,470.947651337,472.224814257,1,1,0.751878600335,472.997267972,3,0,0.381047858624,5,6.0,32,bw,99.7778397771,2019_may_27_1558,011,256,20,5,ana,Experiment_EEG_version,20,
Nonliving_Things,../experiment_stimuli/bw_bc_bl/Nonliving_Things/Kitchen_Uten/coking-pot_21.jpg,Kitchen_Uten,0,coking-pot,0,91,91,18,475.111186119,V_nV,2,475.116687299,476.353790774,1,2,0.761883216444,477.136243425,2,0,0.661672328366,5,7.5,32,bw,99.7778397771,2019_may_27_1558,011,256,20,5,ana,Experiment_EEG_version,20,
Nonliving_Things,../experiment_stimuli/bw_bc_bl/Nonliving_Things/Buildings/palace_4.jpg,Buildings,0,palace,0,92,92,58,479.540836664,nV_V,1,479.546401416,480.77340123,1,1,0.701759133954,481.495721322,1,1,0.521364221582,5,6.5,32,bw,99.7778397771,2019_may_27_1558,011,256,20,5,ana,Experiment_EEG_version,20,
Nonliving_Things,../experiment_stimuli/bw_bc_bl/Nonliving_Things/Buildings/cathedral_11.jpg,Buildings,0,cathedral,0,93,93,14,483.749969075,nV_V,1,483.755656005,485.002591771,0,2,5.03117705858,490.054338193,1,1,0.260785185965,5,6.0,32,bw,99.7778397771,2019_may_27_1558,011,256,20,5,ana,Experiment_EEG_version,20,
Living_Things,../experiment_stimuli/bw_bc_bl/Living_Things/Animals/rhino_18.jpg,Animals,0,rhino,0,94,94,68,492.048008095,nV_V,2,492.05361382,493.330708349,0,1,13.7501188593,507.101380854,1,1,0.491355271311,5,6.0,32,bw,99.7778397771,2019_may_27_1558,011,256,20,5,ana,Experiment_EEG_version,20,
Living_Things,../experiment_stimuli/bw_bc_bl/Living_Things/Animals/cat_4.jpg,Animals,0,cat,0,95,95,13,509.325571121,nV_V,2,509.331180548,510.618302596,1,2,1.9143933726,512.553229621,2,0,0.391081677284,5,6.0,32,bw,99.7778397771,2019_may_27_1558,011,256,20,5,ana,Experiment_EEG_version,20,
