category,probe_path,subcategory,fixation_duration,label,trials.thisRepN,trials.thisTrialN,trials.thisN,trials.thisIndex,image_onset_time,response_window,correctAns,probe_onset,discrim_resptime,response.corr,response.keys,response.rt,visible_resptime,visible.keys,visible.corr,visible.rt,probeFrames,jitter2,n_square,experiment_color,frameRate,date,session,image_size,premask_dur,probeFrames,participant,expName,postmask_dur,
Living_Things,../experiment_stimuli/bw_bc_bl/Living_Things/Marine_creatures/pomfret_4.jpg,Marine_creatures,0,pomfret,0,0,0,65,3.71564849652,V_nV,1,3.73539537238,4.99832347641,0,2,1.53356466861,6.56275604898,1,1,0.120529247448,5,6.0,32,bw,99.7835814942,2019_jun_10_1327,003,256,20,5,alba,Experiment_EEG_version,20,
Nonliving_Things,../experiment_stimuli/bw_bc_bl/Nonliving_Things/Vehicles/bus_18.jpg,Vehicles,0,bus,0,1,1,9,8.41588237742,nV_V,1,8.42072836123,9.71858231863,1,1,1.04249451729,10.7816394134,3,0,0.170595041942,5,6.5,32,bw,99.7835814942,2019_jun_10_1327,003,256,20,5,alba,Experiment_EEG_version,20,
Living_Things,../experiment_stimuli/bw_bc_bl/Living_Things/Marine_creatures/killer-whale_21.jpg,Marine_creatures,0,killer-whale,0,2,2,43,12.6851379569,nV_V,2,12.6900032903,13.967821531,1,2,1.28303766251,15.2714125304,3,0,0.381054283585,5,7.5,32,bw,99.7835814942,2019_jun_10_1327,003,256,20,5,alba,Experiment_EEG_version,20,
Nonliving_Things,../experiment_stimuli/bw_bc_bl/Nonliving_Things/Musical_Inst/saxophone_10.jpg,Musical_Inst,0,saxophone,0,3,3,72,17.3853715337,V_nV,2,17.3912453935,18.6479960675,0,1,0.551427745726,19.2199730072,1,1,0.20065064868,5,6.0,32,bw,99.7835814942,2019_jun_10_1327,003,256,20,5,alba,Experiment_EEG_version,20,
Nonliving_Things,../experiment_stimuli/bw_bc_bl/Nonliving_Things/Vehicles/boat_21.jpg,Vehicles,0,boat,0,4,4,7,21.1535416804,nV_V,1,21.1583325258,22.426221672,1,1,2.08475572197,24.5315260808,3,0,0.120556246955,5,6.0,32,bw,99.7835814942,2019_jun_10_1327,003,256,20,5,alba,Experiment_EEG_version,20,
Living_Things,../experiment_stimuli/bw_bc_bl/Living_Things/Marine_creatures/whale_19.jpg,Marine_creatures,0,whale,0,5,5,94,26.3849222781,V_nV,1,26.3896617405,27.6375417109,0,2,0.270654717926,27.9287579162,1,1,0.0603999695741,5,6.0,32,bw,99.7835814942,2019_jun_10_1327,003,256,20,5,alba,Experiment_EEG_version,20,
Living_Things,../experiment_stimuli/bw_bc_bl/Living_Things/Animals/rhino_12.jpg,Animals,0,rhino,0,6,6,68,29.7221698747,V_nV,1,29.7275046296,30.9948481666,1,1,1.16275185114,32.1781393178,3,0,0.120491582435,5,7.0,32,bw,99.7835814942,2019_jun_10_1327,003,256,20,5,alba,Experiment_EEG_version,20,
Living_Things,../experiment_stimuli/bw_bc_bl/Living_Things/Animals/giraffe_3.jpg,Animals,0,giraffe,0,7,7,32,34.0315415147,V_nV,1,34.0371433035,35.2841668874,0,2,0.371049111243,35.6757883201,1,1,0.130506375339,5,6.0,32,bw,99.7835814942,2019_jun_10_1327,003,256,20,5,alba,Experiment_EEG_version,20,
Living_Things,../experiment_stimuli/bw_bc_bl/Living_Things/Animals/lynx_26.jpg,Animals,0,lynx,0,8,8,50,37.539164871,nV_V,2,37.5440448127,38.8018142539,0,1,1.07256715046,39.8949308922,1,1,0.180614488665,5,7.0,32,bw,99.7835814942,2019_jun_10_1327,003,256,20,5,alba,Experiment_EEG_version,20,
Nonliving_Things,../experiment_stimuli/bw_bc_bl/Nonliving_Things/Kitchen_Uten/small-saucepan_7.jpg,Kitchen_Uten,0,small-saucepan,0,9,9,77,41.8084530816,V_nV,2,41.8132487312,43.0811283924,1,2,0.992388186045,44.0940635209,2,0,0.230725244153,5,6.5,32,bw,99.7835814942,2019_jun_10_1327,003,256,20,5,alba,Experiment_EEG_version,20,
Living_Things,../experiment_stimuli/bw_bc_bl/Living_Things/Marine_creatures/lobster_26.jpg,Marine_creatures,0,lobster,0,10,10,49,46.0576888761,nV_V,2,46.062714376,47.3203345449,1,2,1.41330457153,48.7542061415,1,1,0.120546502993,5,6.0,32,bw,99.7835814942,2019_jun_10_1327,003,256,20,5,alba,Experiment_EEG_version,20,
Nonliving_Things,../experiment_stimuli/bw_bc_bl/Nonliving_Things/Tools/hammer_14.jpg,Tools,0,hammer,0,11,11,37,50.607580102,V_nV,2,50.6124275257,51.8902647924,0,1,0.140538220294,52.0513838795,1,1,0.210699824616,5,6.0,32,bw,99.7835814942,2019_jun_10_1327,003,256,20,5,alba,Experiment_EEG_version,20,
Living_Things,../experiment_stimuli/bw_bc_bl/Living_Things/Insects/ladybird_6.jpg,Insects,0,ladybird,0,12,12,45,53.9949398567,nV_V,2,53.9998002122,55.2876585238,0,1,0.721803331748,56.0300052678,3,0,0.17060245527,5,6.5,32,bw,99.7835814942,2019_jun_10_1327,003,256,20,5,alba,Experiment_EEG_version,20,
Nonliving_Things,../experiment_stimuli/bw_bc_bl/Nonliving_Things/Furniture/lamp_13.jpg,Furniture,0,lamp,0,13,13,46,57.9335072893,nV_V,1,57.9383276938,59.1961550741,1,1,0.781926418189,59.9986240743,3,0,0.150546960533,5,6.5,32,bw,99.7835814942,2019_jun_10_1327,003,256,20,5,alba,Experiment_EEG_version,20,
Nonliving_Things,../experiment_stimuli/bw_bc_bl/Nonliving_Things/Vehicles/car_17.jpg,Vehicles,0,car,0,14,14,11,61.8820898444,V_nV,2,61.8868947309,63.1146703162,1,2,0.290867405944,63.4261147506,1,1,0.0703741316684,5,7.0,32,bw,99.7835814942,2019_jun_10_1327,003,256,20,5,alba,Experiment_EEG_version,20,
Living_Things,../experiment_stimuli/bw_bc_bl/Living_Things/Birds/penguin_26.jpg,Birds,0,penguin,0,15,15,61,65.229369944,V_nV,1,65.2342570848,66.4920249889,1,1,0.671698925551,67.1842774618,2,0,0.0503232451156,5,6.5,32,bw,99.7835814942,2019_jun_10_1327,003,256,20,5,alba,Experiment_EEG_version,20,
Nonliving_Things,../experiment_stimuli/bw_bc_bl/Nonliving_Things/Kitchen_Uten/fondue_15.jpg,Kitchen_Uten,0,fondue,0,16,16,30,68.9674949837,V_nV,2,68.9722988852,70.2201217506,0,1,0.170599906705,70.411280449,1,1,0.24075426627,5,6.5,32,bw,99.7835814942,2019_jun_10_1327,003,256,20,5,alba,Experiment_EEG_version,20,
Living_Things,../experiment_stimuli/bw_bc_bl/Living_Things/Animals/tapir_15.jpg,Animals,0,tapir,0,17,17,82,72.3849203791,nV_V,2,72.3897403558,73.6575854272,1,2,0.822015238926,74.5001739804,2,0,0.200656942092,5,6.0,32,bw,99.7835814942,2019_jun_10_1327,003,256,20,5,alba,Experiment_EEG_version,20,
Living_Things,../experiment_stimuli/bw_bc_bl/Living_Things/Birds/pigeon_2.jpg,Birds,0,pigeon,0,18,18,63,76.4337175973,nV_V,2,76.4401927381,77.6963721421,0,1,0.140530878212,77.8574614064,1,1,0.230716135819,5,7.5,32,bw,99.7835814942,2019_jun_10_1327,003,256,20,5,alba,Experiment_EEG_version,20,
Living_Things,../experiment_stimuli/bw_bc_bl/Living_Things/Birds/duck_25.jpg,Birds,0,duck,0,19,19,26,79.8210853748,V_nV,1,79.8259988306,81.1137998309,1,1,3.90872861911,85.0430873996,2,0,0.160556715447,5,7.5,32,bw,99.7835814942,2019_jun_10_1327,003,256,20,5,alba,Experiment_EEG_version,20,
Living_Things,../experiment_stimuli/bw_bc_bl/Living_Things/Marine_creatures/narwhal_15.jpg,Marine_creatures,0,narwhal,0,20,20,55,86.9365653987,V_nV,1,86.94152564,88.2192424159,1,1,0.461248522159,88.7010370232,2,0,0.110460418276,5,6.0,32,bw,99.7835814942,2019_jun_10_1327,003,256,20,5,alba,Experiment_EEG_version,20,
Nonliving_Things,../experiment_stimuli/bw_bc_bl/Nonliving_Things/Buildings/church_4.jpg,Buildings,0,church,0,21,21,17,90.5443999693,V_nV,2,90.5494251647,91.8170653447,1,2,0.541399720125,92.3790219622,2,0,0.230728011578,5,7.5,32,bw,99.7835814942,2019_jun_10_1327,003,256,20,5,alba,Experiment_EEG_version,20,
Nonliving_Things,../experiment_stimuli/bw_bc_bl/Nonliving_Things/Buildings/house_7.jpg,Buildings,0,house,0,22,22,41,94.3426511255,nV_V,1,94.3491484839,95.6052983431,0,2,0.691565257497,96.3174318513,1,1,0.110503293574,5,6.0,32,bw,99.7835814942,2019_jun_10_1327,003,256,20,5,alba,Experiment_EEG_version,20,
Nonliving_Things,../experiment_stimuli/bw_bc_bl/Nonliving_Things/Buildings/palace_11.jpg,Buildings,0,palace,0,23,23,58,98.1609580088,nV_V,1,98.1659097243,99.4542678967,1,1,0.872117013671,100.346334136,1,1,0.240736654028,5,6.0,32,bw,99.7835814942,2019_jun_10_1327,003,256,20,5,alba,Experiment_EEG_version,20,
Nonliving_Things,../experiment_stimuli/bw_bc_bl/Nonliving_Things/Buildings/castle_18.jpg,Buildings,0,castle,0,24,24,12,102.319992062,nV_V,1,102.324920315,103.622727356,1,1,1.15273165656,104.796052503,1,1,0.310885074083,5,6.5,32,bw,99.7835814942,2019_jun_10_1327,003,256,20,5,alba,Experiment_EEG_version,20,
Nonliving_Things,../experiment_stimuli/bw_bc_bl/Nonliving_Things/Furniture/couch_14.jpg,Furniture,0,couch,0,25,25,19,106.839826666,V_nV,2,106.845760878,108.17262515,0,1,0.320912309922,108.514107924,1,1,3.24729682039,5,6.5,32,bw,99.7835814942,2019_jun_10_1327,003,256,20,5,alba,Experiment_EEG_version,20,
Nonliving_Things,../experiment_stimuli/bw_bc_bl/Nonliving_Things/Tools/axe_11.jpg,Tools,0,axe,0,26,26,3,113.494290947,V_nV,2,113.49912681,114.847146872,1,2,0.98235522816,115.860079196,2,0,0.631597717293,5,6.0,32,bw,99.7835814942,2019_jun_10_1327,003,256,20,5,alba,Experiment_EEG_version,20,
Living_Things,../experiment_stimuli/bw_bc_bl/Living_Things/Birds/rooster_25.jpg,Birds,0,rooster,0,27,27,70,118.224605746,V_nV,1,118.22951465,119.567392658,1,1,0.832073207479,120.420025944,2,0,0.320944174193,5,6.0,32,bw,99.7835814942,2019_jun_10_1327,003,256,20,5,alba,Experiment_EEG_version,20,
Nonliving_Things,../experiment_stimuli/bw_bc_bl/Nonliving_Things/Furniture/bedside-table_8.jpg,Furniture,0,bedside-table,0,28,28,6,122.47381609,V_nV,2,122.478837741,123.806615051,1,2,1.142717232,124.969885083,2,0,1.48328597844,5,6.5,32,bw,99.7835814942,2019_jun_10_1327,003,256,20,5,alba,Experiment_EEG_version,20,
Nonliving_Things,../experiment_stimuli/bw_bc_bl/Nonliving_Things/Musical_Inst/piano__19.jpg,Musical_Inst,0,piano,0,29,29,62,128.18623361,nV_V,1,128.19281616,129.509016174,1,1,0.531382337213,130.060956363,3,0,0.371020607185,5,6.0,32,bw,99.7835814942,2019_jun_10_1327,003,256,20,5,alba,Experiment_EEG_version,20,
Living_Things,../experiment_stimuli/bw_bc_bl/Living_Things/Birds/kiwi_8.jpg,Birds,0,kiwi,0,30,30,44,132.164902074,V_nV,1,132.169746569,133.467618436,1,1,1.01243351167,134.500616367,3,0,0.481262806803,5,7.5,32,bw,99.7835814942,2019_jun_10_1327,003,256,20,5,alba,Experiment_EEG_version,20,
Nonliving_Things,../experiment_stimuli/bw_bc_bl/Nonliving_Things/Furniture/chair_17.jpg,Furniture,0,chair,0,31,31,15,136.714777194,V_nV,2,136.720566244,137.98744181,1,2,2.02462706435,140.032639095,3,0,0.270829346962,5,6.0,32,bw,99.7835814942,2019_jun_10_1327,003,256,20,5,alba,Experiment_EEG_version,20,
Nonliving_Things,../experiment_stimuli/bw_bc_bl/Nonliving_Things/Vehicles/motorbike_16.jpg,Vehicles,0,motorbike,0,32,32,54,142.03634932,V_nV,2,142.042957834,143.288968696,0,1,0.872208200395,144.181745324,1,1,0.361002190504,5,6.5,32,bw,99.7835814942,2019_jun_10_1327,003,256,20,5,alba,Experiment_EEG_version,20,
Living_Things,../experiment_stimuli/bw_bc_bl/Living_Things/Birds/raven_3.jpg,Birds,0,raven,0,33,33,67,146.275566123,V_nV,1,146.280501214,147.538219942,1,1,0.130500582047,147.689283993,1,1,2.32528235996,5,6.0,32,bw,99.7835814942,2019_jun_10_1327,003,256,20,5,alba,Experiment_EEG_version,20,
Living_Things,../experiment_stimuli/bw_bc_bl/Living_Things/Birds/ostrich_18.jpg,Birds,0,ostrich,0,34,34,56,151.747461543,V_nV,1,151.752372323,153.020130884,1,1,0.832046764437,153.872720846,2,0,0.29086537566,5,6.0,32,bw,99.7835814942,2019_jun_10_1327,003,256,20,5,alba,Experiment_EEG_version,20,
Living_Things,../experiment_stimuli/bw_bc_bl/Living_Things/Animals/cheetah_7.jpg,Animals,0,cheetah,0,35,35,16,155.896494374,nV_V,2,155.903317589,157.159140137,0,1,0.330944098532,157.51063855,1,1,0.340959996916,5,6.0,32,bw,99.7835814942,2019_jun_10_1327,003,256,20,5,alba,Experiment_EEG_version,20,
Nonliving_Things,../experiment_stimuli/bw_bc_bl/Nonliving_Things/Vehicles/tractor_23.jpg,Vehicles,0,tractor,0,36,36,86,159.584500549,V_nV,2,159.58955686,160.877222776,1,2,1.30308112409,162.200838602,3,0,0.511327143293,5,6.0,32,bw,99.7835814942,2019_jun_10_1327,003,256,20,5,alba,Experiment_EEG_version,20,
Living_Things,../experiment_stimuli/bw_bc_bl/Living_Things/Birds/toucan_6.jpg,Birds,0,toucan,0,37,37,85,164.445060468,nV_V,2,164.449959448,165.707707133,1,2,0.210680426564,165.938955758,1,1,0.350975849666,5,6.0,32,bw,99.7835814942,2019_jun_10_1327,003,256,20,5,alba,Experiment_EEG_version,20,
Living_Things,../experiment_stimuli/bw_bc_bl/Living_Things/Birds/hummingbird_2.jpg,Birds,0,hummingbird,0,38,38,42,168.022847875,nV_V,2,168.027811797,169.305535393,1,2,0.781924933195,170.108020219,3,0,0.601563554257,5,6.0,32,bw,99.7835814942,2019_jun_10_1327,003,256,20,5,alba,Experiment_EEG_version,20,
Living_Things,../experiment_stimuli/bw_bc_bl/Living_Things/Marine_creatures/shark_10.jpg,Marine_creatures,0,shark,0,39,39,75,172.442517068,V_nV,1,172.450181816,173.695076295,1,1,0.0202636118047,173.735899033,1,1,0.300884517841,5,6.0,32,bw,99.7835814942,2019_jun_10_1327,003,256,20,5,alba,Experiment_EEG_version,20,
Nonliving_Things,../experiment_stimuli/bw_bc_bl/Nonliving_Things/Vehicles/plane_0.jpg,Vehicles,0,plane,0,40,40,64,175.769684208,nV_V,1,175.775467313,177.052377198,1,1,0.771908723284,177.84485851,1,1,0.441177677829,5,6.5,32,bw,99.7835814942,2019_jun_10_1327,003,256,20,5,alba,Experiment_EEG_version,20,
Nonliving_Things,../experiment_stimuli/bw_bc_bl/Nonliving_Things/Musical_Inst/trumpet_16.jpg,Musical_Inst,0,trumpet,0,41,41,88,180.018951164,nV_V,1,180.023964186,181.331693833,1,1,0.882140828762,182.23436986,2,0,0.591504265554,5,6.5,32,bw,99.7835814942,2019_jun_10_1327,003,256,20,5,alba,Experiment_EEG_version,20,
Living_Things,../experiment_stimuli/bw_bc_bl/Living_Things/Animals/elephant_18.jpg,Animals,0,elephant,0,42,42,27,184.558799428,nV_V,2,184.563712433,185.86153785,0,1,1.39326235047,187.275344662,1,1,0.280843195971,5,6.5,32,bw,99.7835814942,2019_jun_10_1327,003,256,20,5,alba,Experiment_EEG_version,20,
Living_Things,../experiment_stimuli/bw_bc_bl/Living_Things/Marine_creatures/crab_7.jpg,Marine_creatures,0,crab,0,43,43,21,189.289084988,nV_V,2,189.293973846,190.60183589,0,1,1.00242108339,191.62481336,1,1,0.230726737529,5,6.0,32,bw,99.7835814942,2019_jun_10_1327,003,256,20,5,alba,Experiment_EEG_version,20,
Living_Things,../experiment_stimuli/bw_bc_bl/Living_Things/Insects/butterfly_9.jpg,Insects,0,butterfly,0,44,44,10,193.588432426,nV_V,2,193.593210572,194.921230545,1,2,0.371022641193,195.312823057,3,0,0.320922520477,5,6.0,32,bw,99.7835814942,2019_jun_10_1327,003,256,20,5,alba,Experiment_EEG_version,20,
Living_Things,../experiment_stimuli/bw_bc_bl/Living_Things/Birds/pelican_13.jpg,Birds,0,pelican,0,45,45,60,197.366651165,V_nV,1,197.372623377,198.679399324,1,1,0.691743878648,199.391689611,3,0,0.351006172132,5,6.0,32,bw,99.7835814942,2019_jun_10_1327,003,256,20,5,alba,Experiment_EEG_version,20,
Living_Things,../experiment_stimuli/bw_bc_bl/Living_Things/Animals/tiger_2.jpg,Animals,0,tiger,0,46,46,84,201.475577158,V_nV,1,201.482645602,202.768303283,1,1,0.210693159606,202.999530641,1,1,3.2170579005,5,6.5,32,bw,99.7835814942,2019_jun_10_1327,003,256,20,5,alba,Experiment_EEG_version,20,
Nonliving_Things,../experiment_stimuli/bw_bc_bl/Nonliving_Things/Furniture/Chest-of-drawers_12.jpg,Furniture,0,Chest-of-drawers,0,47,47,0,207.949655029,V_nV,2,207.95553775,209.252396116,1,2,1.05253691459,210.325479669,3,0,0.320927704684,5,6.0,32,bw,99.7835814942,2019_jun_10_1327,003,256,20,5,alba,Experiment_EEG_version,20,
Living_Things,../experiment_stimuli/bw_bc_bl/Living_Things/Birds/magpie_22.jpg,Birds,0,magpie,0,48,48,51,212.379285838,nV_V,2,212.384219016,213.651955864,0,1,0.451208136044,214.123718758,1,1,0.180614714045,5,6.0,32,bw,99.7835814942,2019_jun_10_1327,003,256,20,5,alba,Experiment_EEG_version,20,
Nonliving_Things,../experiment_stimuli/bw_bc_bl/Nonliving_Things/Buildings/granary_17.jpg,Buildings,0,granary,0,49,49,35,216.03723577,V_nV,2,216.042175377,217.33996723,0,1,1.38325492991,218.743784396,1,1,0.250763976481,5,7.5,32,bw,99.7835814942,2019_jun_10_1327,003,256,20,5,alba,Experiment_EEG_version,20,
Living_Things,../experiment_stimuli/bw_bc_bl/Living_Things/Insects/scorpion_6.jpg,Insects,0,scorpion,0,50,50,73,220.727431611,V_nV,1,220.732358556,222.050218208,1,1,0.922232145909,222.993006736,2,0,0.250785596203,5,6.0,32,bw,99.7835814942,2019_jun_10_1327,003,256,20,5,alba,Experiment_EEG_version,20,
Living_Things,../experiment_stimuli/bw_bc_bl/Living_Things/Animals/turtle_10.jpg,Animals,0,turtle,0,51,51,90,224.976675161,nV_V,2,224.981648595,226.289431049,0,1,3.05687730713,229.366874336,1,1,0.190648803487,5,6.0,32,bw,99.7835814942,2019_jun_10_1327,003,256,20,5,alba,Experiment_EEG_version,20,
Nonliving_Things,../experiment_stimuli/bw_bc_bl/Nonliving_Things/Vehicles/train_11.jpg,Vehicles,0,train,0,52,52,87,231.290394927,nV_V,1,231.295242888,232.633217249,0,2,1.28301966656,233.936817857,2,0,0.962315801065,5,8.0,32,bw,99.7835814942,2019_jun_10_1327,003,256,20,5,alba,Experiment_EEG_version,20,
Living_Things,../experiment_stimuli/bw_bc_bl/Living_Things/Birds/sparrow_11.jpg,Birds,0,sparrow,0,53,53,79,236.632013194,nV_V,2,236.639301414,237.964803084,1,2,0.93226116756,238.917628641,2,0,0.791937116999,5,7.0,32,bw,99.7835814942,2019_jun_10_1327,003,256,20,5,alba,Experiment_EEG_version,20,
Living_Things,../experiment_stimuli/bw_bc_bl/Living_Things/Birds/seagull_2.jpg,Birds,0,seagull,0,54,54,74,241.442463323,V_nV,1,241.447290529,242.765243154,1,1,0.691733729094,243.47752466,2,0,0.501311662607,5,6.5,32,bw,99.7835814942,2019_jun_10_1327,003,256,20,5,alba,Experiment_EEG_version,20,
Nonliving_Things,../experiment_stimuli/bw_bc_bl/Nonliving_Things/Musical_Inst/drum_11.jpg,Musical_Inst,0,drum,0,55,55,25,245.711747253,nV_V,1,245.71660571,247.024502102,1,1,0.902206146624,247.947265612,3,0,0.67167870421,5,6.0,32,bw,99.7835814942,2019_jun_10_1327,003,256,20,5,alba,Experiment_EEG_version,20,
Living_Things,../experiment_stimuli/bw_bc_bl/Living_Things/Birds/goose_22.jpg,Birds,0,goose,0,56,56,34,250.351839487,nV_V,2,250.35789754,251.644555301,1,2,0.801967273932,252.467086547,3,0,2.41547278687,5,6.0,32,bw,99.7835814942,2019_jun_10_1327,003,256,20,5,alba,Experiment_EEG_version,20,
Nonliving_Things,../experiment_stimuli/bw_bc_bl/Nonliving_Things/Kitchen_Uten/coking-pot_12.jpg,Kitchen_Uten,0,coking-pot,0,57,57,18,256.615452956,V_nV,2,256.622679774,257.878099155,1,2,0.671685587149,258.570353673,2,0,0.371033186093,5,6.5,32,bw,99.7835814942,2019_jun_10_1327,003,256,20,5,alba,Experiment_EEG_version,20,
Living_Things,../experiment_stimuli/bw_bc_bl/Living_Things/Birds/goldfinch_14.jpg,Birds,0,goldfinch,0,58,58,33,260.674280421,V_nV,1,260.679085248,261.926902704,0,2,0.31091912929,262.258399821,1,1,0.340952929109,5,6.0,32,bw,99.7835814942,2019_jun_10_1327,003,256,20,5,alba,Experiment_EEG_version,20,
Nonliving_Things,../experiment_stimuli/bw_bc_bl/Nonliving_Things/Kitchen_Uten/frying-pan_12.jpg,Kitchen_Uten,0,frying-pan,0,59,59,31,264.332228068,V_nV,2,264.338157423,265.604910108,1,2,1.04249755433,266.667941076,2,0,0.761873882264,5,6.0,32,bw,99.7835814942,2019_jun_10_1327,003,256,20,5,alba,Experiment_EEG_version,20,
Living_Things,../experiment_stimuli/bw_bc_bl/Living_Things/Marine_creatures/sperm-whale_13.jpg,Marine_creatures,0,sperm-whale,0,60,60,80,269.162735929,V_nV,1,269.169172213,270.415358647,1,1,0.140526262112,270.576461566,1,1,0.300871371757,5,6.5,32,bw,99.7835814942,2019_jun_10_1327,003,256,20,5,alba,Experiment_EEG_version,20,
Nonliving_Things,../experiment_stimuli/bw_bc_bl/Nonliving_Things/Musical_Inst/tuba_25.jpg,Musical_Inst,0,tuba,0,61,61,89,272.610231898,nV_V,1,272.616471737,273.89292122,1,1,3.34753665607,277.261027332,3,0,0.230723500252,5,6.5,32,bw,99.7835814942,2019_jun_10_1327,003,256,20,5,alba,Experiment_EEG_version,20,
Nonliving_Things,../experiment_stimuli/bw_bc_bl/Nonliving_Things/Buildings/cathedral_4.jpg,Buildings,0,cathedral,0,62,62,14,279.224615564,nV_V,1,279.22965706,280.477232411,0,2,0.0603572707623,280.558146616,1,1,0.280812914483,5,6.0,32,bw,99.7835814942,2019_jun_10_1327,003,256,20,5,alba,Experiment_EEG_version,20,
Nonliving_Things,../experiment_stimuli/bw_bc_bl/Nonliving_Things/Furniture/lectern_1.jpg,Furniture,0,lectern,0,63,63,47,282.571880581,nV_V,1,282.57657653,283.864594932,1,1,0.190636295825,284.075801904,1,1,0.260787813924,5,8.0,32,bw,99.7835814942,2019_jun_10_1327,003,256,20,5,alba,Experiment_EEG_version,20,
Nonliving_Things,../experiment_stimuli/bw_bc_bl/Nonliving_Things/Vehicles/ship_6.jpg,Vehicles,0,ship,0,64,64,76,286.069486821,nV_V,1,286.075684782,287.392266099,1,1,1.55362182483,288.966458099,2,0,0.962330128066,5,7.0,32,bw,99.7835814942,2019_jun_10_1327,003,256,20,5,alba,Experiment_EEG_version,20,
Nonliving_Things,../experiment_stimuli/bw_bc_bl/Nonliving_Things/Furniture/sofa_22.jpg,Furniture,0,sofa,0,65,65,78,291.66165303,nV_V,1,291.666331042,292.964386316,1,1,2.27517603245,295.270123512,3,0,0.380902759265,5,6.0,32,bw,99.7835814942,2019_jun_10_1327,003,256,20,5,alba,Experiment_EEG_version,20,
Nonliving_Things,../experiment_stimuli/bw_bc_bl/Nonliving_Things/Kitchen_Uten/pot_24.jpg,Kitchen_Uten,0,pot,0,66,66,66,297.384094117,nV_V,1,297.388856263,298.666785029,1,1,4.08912170446,302.776462195,3,0,0.51133366907,5,6.5,32,bw,99.7835814942,2019_jun_10_1327,003,256,20,5,alba,Experiment_EEG_version,20,
Nonliving_Things,../experiment_stimuli/bw_bc_bl/Nonliving_Things/Musical_Inst/guitar_10.jpg,Musical_Inst,0,guitar,0,67,67,36,305.020701903,V_nV,2,305.025402453,306.283345463,0,1,1.22288387734,307.526796734,1,1,0.98235966824,5,6.0,32,bw,99.7835814942,2019_jun_10_1327,003,256,20,5,alba,Experiment_EEG_version,20,
Nonliving_Things,../experiment_stimuli/bw_bc_bl/Nonliving_Things/Buildings/factory_18.jpg,Buildings,0,factory,0,68,68,28,310.242048727,nV_V,1,310.246789664,311.504694693,1,1,0.501317775343,312.026600614,1,1,0.180615195073,5,6.0,32,bw,99.7835814942,2019_jun_10_1327,003,256,20,5,alba,Experiment_EEG_version,20,
Nonliving_Things,../experiment_stimuli/bw_bc_bl/Nonliving_Things/Furniture/table_1.jpg,Furniture,0,table,0,69,69,81,313.940086683,V_nV,2,313.944915483,315.222777467,1,2,0.872118047439,316.11545195,3,0,0.391080515459,5,6.0,32,bw,99.7835814942,2019_jun_10_1327,003,256,20,5,alba,Experiment_EEG_version,20,
Living_Things,../experiment_stimuli/bw_bc_bl/Living_Things/Animals/hippopotamus_18.jpg,Animals,0,hippopotamus,0,70,70,39,318.239432088,V_nV,1,318.244251124,319.492059219,0,2,0.280839263927,319.793460861,1,1,0.120485624298,5,6.5,32,bw,99.7835814942,2019_jun_10_1327,003,256,20,5,alba,Experiment_EEG_version,20,
Nonliving_Things,../experiment_stimuli/bw_bc_bl/Nonliving_Things/Buildings/mill_8.jpg,Buildings,0,mill,0,71,71,53,321.646840465,V_nV,2,321.653177262,322.929532749,1,2,0.431166712195,323.381251701,1,1,0.140578637365,5,8.0,32,bw,99.7835814942,2019_jun_10_1327,003,256,20,5,alba,Experiment_EEG_version,20,
Living_Things,../experiment_stimuli/bw_bc_bl/Living_Things/Animals/lioness_16.jpg,Animals,0,lioness,0,72,72,48,325.254686126,nV_V,2,325.261101985,326.54740324,1,2,0.812002044171,327.379945358,2,0,0.611560343299,5,6.0,32,bw,99.7835814942,2019_jun_10_1327,003,256,20,5,alba,Experiment_EEG_version,20,
Living_Things,../experiment_stimuli/bw_bc_bl/Living_Things/Marine_creatures/manatee_20.jpg,Marine_creatures,0,manatee,0,73,73,52,329.72440141,nV_V,2,329.729159654,331.007096303,0,1,1.20284119807,332.230499364,1,1,0.320916238707,5,6.5,32,bw,99.7835814942,2019_jun_10_1327,003,256,20,5,alba,Experiment_EEG_version,20,
Nonliving_Things,../experiment_stimuli/bw_bc_bl/Nonliving_Things/Musical_Inst/violin_10.jpg,Musical_Inst,0,violin,0,74,74,92,334.284321706,V_nV,2,334.289180333,335.597073868,1,2,0.531377799343,336.149020392,3,0,0.51133188745,5,8.0,32,bw,99.7835814942,2019_jun_10_1327,003,256,20,5,alba,Experiment_EEG_version,20,
Nonliving_Things,../experiment_stimuli/bw_bc_bl/Nonliving_Things/Furniture/filling-cabinet_14.jpg,Furniture,0,filling-cabinet,0,75,75,29,338.39325901,V_nV,2,338.397998026,339.685962114,1,2,0.461232401896,340.167769195,1,1,0.350987236481,5,8.0,32,bw,99.7835814942,2019_jun_10_1327,003,256,20,5,alba,Experiment_EEG_version,20,
Nonliving_Things,../experiment_stimuli/bw_bc_bl/Nonliving_Things/Furniture/bookcase_8.jpg,Furniture,0,bookcase,0,76,76,8,342.251650459,nV_V,1,342.256364798,343.554372652,1,1,0.701756385621,344.276681341,3,0,2.69609024143,5,6.5,32,bw,99.7835814942,2019_jun_10_1327,003,256,20,5,alba,Experiment_EEG_version,20,
Living_Things,../experiment_stimuli/bw_bc_bl/Living_Things/Birds/partridge_2.jpg,Birds,0,partridge,0,77,77,59,348.705670404,V_nV,1,348.712027821,349.97835538,1,1,2.83641309664,352.835305039,2,0,0.340956797358,5,6.5,32,bw,99.7835814942,2019_jun_10_1327,003,256,20,5,alba,Experiment_EEG_version,20,
Nonliving_Things,../experiment_stimuli/bw_bc_bl/Nonliving_Things/Kitchen_Uten/cup_4.jpg,Kitchen_Uten,0,cup,0,78,78,22,354.909174376,V_nV,2,354.913916895,356.18182853,1,2,0.50131818885,356.703689853,3,0,1.00239930209,5,7.5,32,bw,99.7835814942,2019_jun_10_1327,003,256,20,5,alba,Experiment_EEG_version,20,
Nonliving_Things,../experiment_stimuli/bw_bc_bl/Nonliving_Things/Furniture/rocking-chair_25.jpg,Furniture,0,rocking-chair,0,79,79,69,359.439006769,nV_V,1,359.443849561,360.691634062,1,1,0.0904261558317,360.802616488,1,1,2.15490045445,5,6.0,32,bw,99.7835814942,2019_jun_10_1327,003,256,20,5,alba,Experiment_EEG_version,20,
Living_Things,../experiment_stimuli/bw_bc_bl/Living_Things/Animals/cow_9.jpg,Animals,0,cow,0,80,80,20,364.690423327,V_nV,1,364.69524883,365.973116431,0,2,0.140530667733,366.134191455,2,0,1.81416926254,5,6.0,32,bw,99.7835814942,2019_jun_10_1327,003,256,20,5,alba,Experiment_EEG_version,20,
Living_Things,../experiment_stimuli/bw_bc_bl/Living_Things/Insects/dragonfly_10.jpg,Insects,0,dragonfly,0,81,81,24,369.681281411,V_nV,1,369.686030182,370.953942136,1,1,2.06472202018,373.039203268,3,0,0.390918653458,5,6.5,32,bw,99.7835814942,2019_jun_10_1327,003,256,20,5,alba,Experiment_EEG_version,20,
Living_Things,../experiment_stimuli/bw_bc_bl/Living_Things/Birds/hen_15.jpg,Birds,0,hen,0,82,82,38,375.163193668,nV_V,2,375.169526492,376.405800252,1,2,0.280840560794,376.707197184,1,1,0.0904208933935,5,6.0,32,bw,99.7835814942,2019_jun_10_1327,003,256,20,5,alba,Experiment_EEG_version,20,
Living_Things,../experiment_stimuli/bw_bc_bl/Living_Things/Animals/cat_25.jpg,Animals,0,cat,0,83,83,13,378.530538545,V_nV,1,378.535285124,379.813206679,1,1,0.451232973486,380.285001354,1,1,0.170586996712,5,6.0,32,bw,99.7835814942,2019_jun_10_1327,003,256,20,5,alba,Experiment_EEG_version,20,
Nonliving_Things,../experiment_stimuli/bw_bc_bl/Nonliving_Things/Kitchen_Uten/teapot_17.jpg,Kitchen_Uten,0,teapot,0,84,84,83,382.188471037,nV_V,1,382.193325607,383.491202764,1,1,1.02255174285,384.534302941,1,1,0.170587597881,5,7.5,32,bw,99.7835814942,2019_jun_10_1327,003,256,20,5,alba,Experiment_EEG_version,20,
Living_Things,../experiment_stimuli/bw_bc_bl/Living_Things/Animals/horse_7.jpg,Animals,0,horse,0,85,85,40,386.43771217,V_nV,1,386.442511794,387.760490181,1,1,0.721908514388,388.502942428,3,0,0.190648721065,5,6.0,32,bw,99.7835814942,2019_jun_10_1327,003,256,20,5,alba,Experiment_EEG_version,20,
Living_Things,../experiment_stimuli/bw_bc_bl/Living_Things/Marine_creatures/dolphin_23.jpg,Marine_creatures,0,dolphin,0,86,86,23,390.426381441,V_nV,1,390.431146787,391.72910986,0,2,0.260792027693,392.010473958,1,1,0.130504863802,5,6.0,32,bw,99.7835814942,2019_jun_10_1327,003,256,20,5,alba,Experiment_EEG_version,20,
Nonliving_Things,../experiment_stimuli/bw_bc_bl/Nonliving_Things/Kitchen_Uten/saucepan_24.jpg,Kitchen_Uten,0,saucepan,0,87,87,71,393.873878177,V_nV,2,393.87857079,395.196647733,1,2,1.61373670492,396.830931098,1,1,0.300871036947,5,7.0,32,bw,99.7835814942,2019_jun_10_1327,003,256,20,5,alba,Experiment_EEG_version,20,
Living_Things,../experiment_stimuli/bw_bc_bl/Living_Things/Animals/armadillo_7.jpg,Animals,0,armadillo,0,88,88,1,398.864719866,V_nV,1,398.871197078,400.207542078,1,1,0.571470654104,400.799578524,3,0,0.330935842823,5,6.0,32,bw,99.7835814942,2019_jun_10_1327,003,256,20,5,alba,Experiment_EEG_version,20,
Nonliving_Things,../experiment_stimuli/bw_bc_bl/Nonliving_Things/Furniture/armchair_8.jpg,Furniture,0,armchair,0,89,89,2,402.863416813,V_nV,2,402.868154523,404.196218244,1,2,1.12268625246,405.339455119,3,0,0.381053358316,5,7.0,32,bw,99.7835814942,2019_jun_10_1327,003,256,20,5,alba,Experiment_EEG_version,20,
Nonliving_Things,../experiment_stimuli/bw_bc_bl/Nonliving_Things/Furniture/wardrobe_10.jpg,Furniture,0,wardrobe,0,90,90,93,407.453396705,V_nV,2,407.458152979,408.746117379,1,2,6.25383245433,415.020480498,3,0,0.361021243036,5,6.0,32,bw,99.7835814942,2019_jun_10_1327,003,256,20,5,alba,Experiment_EEG_version,20,
Nonliving_Things,../experiment_stimuli/bw_bc_bl/Nonliving_Things/Vehicles/van_23.jpg,Vehicles,0,van,0,91,91,91,417.114402036,nV_V,1,417.119132232,418.377045935,1,1,0.641634321772,419.039291717,3,0,0.371028415393,5,6.5,32,bw,99.7835814942,2019_jun_10_1327,003,256,20,5,alba,Experiment_EEG_version,20,
Nonliving_Things,../experiment_stimuli/bw_bc_bl/Nonliving_Things/Furniture/bed_24.jpg,Furniture,0,bed,0,92,92,5,421.143155748,V_nV,2,421.147874926,422.375741931,0,1,0.0503346398473,422.446626558,1,1,0.230718008243,5,6.0,32,bw,99.7835814942,2019_jun_10_1327,003,256,20,5,alba,Experiment_EEG_version,20,
Living_Things,../experiment_stimuli/bw_bc_bl/Living_Things/Animals/zebra_18.jpg,Animals,0,zebra,0,93,93,95,424.410261594,V_nV,1,424.415166092,425.672918465,1,1,1.19266500603,426.886134707,2,0,0.260779137257,5,6.5,32,bw,99.7835814942,2019_jun_10_1327,003,256,20,5,alba,Experiment_EEG_version,20,
Living_Things,../experiment_stimuli/bw_bc_bl/Living_Things/Birds/barn-owl_10.jpg,Birds,0,barn-owl,0,94,94,4,428.890001508,V_nV,1,428.896501123,430.15266367,1,1,0.661670929752,430.834874099,1,1,0.170597214717,5,6.5,32,bw,99.7835814942,2019_jun_10_1327,003,256,20,5,alba,Experiment_EEG_version,20,
Living_Things,../experiment_stimuli/bw_bc_bl/Living_Things/Birds/owl_25.jpg,Birds,0,owl,0,95,95,57,432.7484139,nV_V,2,432.753145739,434.021061535,1,2,0.601558332331,434.643165821,1,1,0.0803919425234,5,7.0,32,bw,99.7835814942,2019_jun_10_1327,003,256,20,5,alba,Experiment_EEG_version,20,
