category,probe_path,subcategory,fixation_duration,label,trials.thisRepN,trials.thisTrialN,trials.thisN,trials.thisIndex,image_onset_time,response_window,correctAns,probe_onset,discrim_resptime,response.corr,response.keys,response.rt,visible_resptime,visible.keys,visible.corr,visible.rt,probeFrames,jitter2,n_square,experiment_color,frameRate,date,session,image_size,premask_dur,probeFrames,participant,expName,postmask_dur,
Nonliving_Things,../experiment_stimuli/bw_bc_bl/Nonliving_Things/Vehicles/train_17.jpg,Vehicles,0,train,0,0,0,87,3.7158295433,nV_V,1,3.73796013556,4.99851996638,1,1,8.82942104153,13.858802096,1,1,3.81851570774,5,6.0,32,bw,99.7839371135,2019_jun_10_1310,001,256,20,5,alba,Experiment_EEG_version,20,
Living_Things,../experiment_stimuli/bw_bc_bl/Living_Things/Birds/hen_23.jpg,Birds,0,hen,0,1,1,38,19.4099689182,V_nV,1,19.414779007,20.7026533224,0,2,0.942271441221,21.6654960108,1,1,1.85425036913,5,8.0,32,bw,99.7839371135,2019_jun_10_1310,001,256,20,5,alba,Experiment_EEG_version,20,
Living_Things,../experiment_stimuli/bw_bc_bl/Living_Things/Marine_creatures/killer-whale_25.jpg,Marine_creatures,0,killer-whale,0,2,2,43,25.252652938,nV_V,2,25.2574742106,26.5553749613,0,1,0.28084845515,26.8567771525,1,1,1.27299088519,5,6.0,32,bw,99.7839371135,2019_jun_10_1310,001,256,20,5,alba,Experiment_EEG_version,20,
Living_Things,../experiment_stimuli/bw_bc_bl/Living_Things/Animals/turtle_20.jpg,Animals,0,turtle,0,3,3,90,29.8626675732,nV_V,2,29.8674899624,31.1954627936,1,2,0.541399543174,31.7574097607,2,0,1.78408788191,5,7.5,32,bw,99.7839371135,2019_jun_10_1310,001,256,20,5,alba,Experiment_EEG_version,20,
Nonliving_Things,../experiment_stimuli/bw_bc_bl/Nonliving_Things/Kitchen_Uten/fondue_18.jpg,Kitchen_Uten,0,fondue,0,4,4,30,35.274426565,nV_V,1,35.2793599563,36.5972071057,1,1,0.641613529529,37.259379209,3,0,2.51568806916,5,6.0,32,bw,99.7839371135,2019_jun_10_1310,001,256,20,5,alba,Experiment_EEG_version,20,
Living_Things,../experiment_stimuli/bw_bc_bl/Living_Things/Birds/hummingbird_9.jpg,Birds,0,hummingbird,0,5,5,42,41.5079772081,nV_V,2,41.512804511,42.8006895632,1,2,0.49127752427,43.3125364319,2,0,1.19283324387,5,6.5,32,bw,99.7839371135,2019_jun_10_1310,001,256,20,5,alba,Experiment_EEG_version,20,
Nonliving_Things,../experiment_stimuli/bw_bc_bl/Nonliving_Things/Musical_Inst/trumpet_22.jpg,Musical_Inst,0,trumpet,0,6,6,88,46.2382564074,nV_V,1,46.2431457429,47.5209642323,1,1,0.621570917778,48.1630694726,2,0,1.17275904259,5,6.0,32,bw,99.7839371135,2019_jun_10_1310,001,256,20,5,alba,Experiment_EEG_version,20,
Living_Things,../experiment_stimuli/bw_bc_bl/Living_Things/Birds/toucan_15.jpg,Birds,0,toucan,0,7,7,85,51.0687636482,V_nV,1,51.073623484,52.3414364667,1,1,0.521376040298,52.8833615924,3,0,0.781911824364,5,7.5,32,bw,99.7839371135,2019_jun_10_1310,001,256,20,5,alba,Experiment_EEG_version,20,
Living_Things,../experiment_stimuli/bw_bc_bl/Living_Things/Birds/pelican_6.jpg,Birds,0,pelican,0,8,8,60,55.3981721969,nV_V,2,55.4030689383,56.6407820061,0,1,1.74400951946,58.405358498,1,1,0.491286091972,5,6.5,32,bw,99.7839371135,2019_jun_10_1310,001,256,20,5,alba,Experiment_EEG_version,20,
Nonliving_Things,../experiment_stimuli/bw_bc_bl/Nonliving_Things/Tools/axe_4.jpg,Tools,0,axe,0,9,9,3,60.6295617078,V_nV,2,60.6343806912,61.9022171767,1,2,0.0102455862798,61.9330156944,1,1,0.731809365563,5,6.0,32,bw,99.7839371135,2019_jun_10_1310,001,256,20,5,alba,Experiment_EEG_version,20,
Living_Things,../experiment_stimuli/bw_bc_bl/Living_Things/Animals/horse_14.jpg,Animals,0,horse,0,10,10,40,64.3977352567,nV_V,2,64.4027721053,65.6804295597,1,2,0.842053364962,66.5430504088,3,0,0.571476823185,5,7.0,32,bw,99.7839371135,2019_jun_10_1310,001,256,20,5,alba,Experiment_EEG_version,20,
Nonliving_Things,../experiment_stimuli/bw_bc_bl/Nonliving_Things/Vehicles/motorbike_24.jpg,Vehicles,0,motorbike,0,11,11,54,68.8474268462,V_nV,2,68.8534132903,70.1000369894,1,2,2.15491280751,72.2755035292,1,1,0.962316195481,5,6.0,32,bw,99.7839371135,2019_jun_10_1310,001,256,20,5,alba,Experiment_EEG_version,20,
Living_Things,../experiment_stimuli/bw_bc_bl/Living_Things/Insects/ladybird_23.jpg,Insects,0,ladybird,0,12,12,45,74.9707704666,V_nV,1,74.9756067842,76.2333716471,1,1,0.461219860706,76.7151508452,2,0,0.541411227081,5,6.0,32,bw,99.7839371135,2019_jun_10_1310,001,256,20,5,alba,Experiment_EEG_version,20,
Nonliving_Things,../experiment_stimuli/bw_bc_bl/Nonliving_Things/Furniture/wardrobe_22.jpg,Furniture,0,wardrobe,0,13,13,93,78.9894657321,V_nV,2,78.9941873299,80.2420943002,0,1,0.290874375962,80.5535379113,1,1,0.300720389001,5,6.5,32,bw,99.7839371135,2019_jun_10_1310,001,256,20,5,alba,Experiment_EEG_version,20,
Living_Things,../experiment_stimuli/bw_bc_bl/Living_Things/Birds/owl_15.jpg,Birds,0,owl,0,14,14,57,82.5872876495,V_nV,1,82.5922702244,83.8599540172,1,1,0.471244314685,84.351741143,1,1,0.220706200227,5,6.0,32,bw,99.7839371135,2019_jun_10_1310,001,256,20,5,alba,Experiment_EEG_version,20,
Nonliving_Things,../experiment_stimuli/bw_bc_bl/Nonliving_Things/Kitchen_Uten/teapot_24.jpg,Kitchen_Uten,0,teapot,0,15,15,83,86.3053700514,nV_V,1,86.3102741125,87.5880613164,0,2,0.822027761023,88.4306654111,2,0,0.932256445754,5,8.0,32,bw,99.7839371135,2019_jun_10_1310,001,256,20,5,alba,Experiment_EEG_version,20,
Nonliving_Things,../experiment_stimuli/bw_bc_bl/Nonliving_Things/Buildings/church_10.jpg,Buildings,0,church,0,16,16,17,91.0957866558,V_nV,2,91.1005962333,92.3684577788,1,2,1.02244330477,93.4114349922,1,1,2.49573956197,5,6.0,32,bw,99.7839371135,2019_jun_10_1310,001,256,20,5,alba,Experiment_EEG_version,20,
Nonliving_Things,../experiment_stimuli/bw_bc_bl/Nonliving_Things/Buildings/factory_24.jpg,Buildings,0,factory,0,17,17,28,97.6400189511,V_nV,2,97.6449088431,98.9327267683,1,2,1.14270595787,100.095986669,1,1,0.882143685594,5,6.0,32,bw,99.7839371135,2019_jun_10_1310,001,256,20,5,alba,Experiment_EEG_version,20,
Nonliving_Things,../experiment_stimuli/bw_bc_bl/Nonliving_Things/Kitchen_Uten/cup_7.jpg,Kitchen_Uten,0,cup,0,18,18,22,102.711038639,nV_V,1,102.717195381,104.033815721,1,1,0.471250999253,104.525634737,3,0,1.04249058105,5,7.0,32,bw,99.7839371135,2019_jun_10_1310,001,256,20,5,alba,Experiment_EEG_version,20,
Nonliving_Things,../experiment_stimuli/bw_bc_bl/Nonliving_Things/Furniture/armchair_26.jpg,Furniture,0,armchair,0,19,19,2,107.301036106,V_nV,2,107.305820218,108.593729585,0,1,0.00025585340336,108.614532084,2,0,3.4878127221,5,8.0,32,bw,99.7839371135,2019_jun_10_1310,001,256,20,5,alba,Experiment_EEG_version,20,
Nonliving_Things,../experiment_stimuli/bw_bc_bl/Nonliving_Things/Furniture/bed_1.jpg,Furniture,0,bed,0,20,20,5,113.835226365,nV_V,1,113.840142572,115.117916829,1,1,0.200678975787,115.339158206,1,1,2.61592589272,5,7.5,32,bw,99.7839371135,2019_jun_10_1310,001,256,20,5,alba,Experiment_EEG_version,20,
Nonliving_Things,../experiment_stimuli/bw_bc_bl/Nonliving_Things/Buildings/palace_9.jpg,Buildings,0,palace,0,21,21,58,119.687947868,V_nV,2,119.693532762,120.980655302,1,2,0.882135211956,121.883342058,2,0,1.06252220413,5,7.0,32,bw,99.7839371135,2019_jun_10_1310,001,256,20,5,alba,Experiment_EEG_version,20,
Nonliving_Things,../experiment_stimuli/bw_bc_bl/Nonliving_Things/Furniture/sofa_6.jpg,Furniture,0,sofa,0,22,22,78,124.678795106,V_nV,2,124.685205683,125.961483367,1,2,0.531381145585,126.513431098,3,0,0.681694692001,5,6.0,32,bw,99.7839371135,2019_jun_10_1310,001,256,20,5,alba,Experiment_EEG_version,20,
Nonliving_Things,../experiment_stimuli/bw_bc_bl/Nonliving_Things/Kitchen_Uten/pot_17.jpg,Kitchen_Uten,0,pot,0,23,23,66,128.928030548,nV_V,1,128.932979093,130.180654852,1,1,1.96449672617,132.166412887,1,1,1.1527240593,5,6.0,32,bw,99.7839371135,2019_jun_10_1310,001,256,20,5,alba,Experiment_EEG_version,20,
Nonliving_Things,../experiment_stimuli/bw_bc_bl/Nonliving_Things/Kitchen_Uten/saucepan_22.jpg,Kitchen_Uten,0,saucepan,0,24,24,71,135.051343525,nV_V,1,135.057918904,136.324032832,1,1,0.441179508809,136.785732062,3,0,1.15273134504,5,6.0,32,bw,99.7839371135,2019_jun_10_1310,001,256,20,5,alba,Experiment_EEG_version,20,
Nonliving_Things,../experiment_stimuli/bw_bc_bl/Nonliving_Things/Furniture/chair_12.jpg,Furniture,0,chair,0,25,25,15,139.671391792,nV_V,1,139.677127303,140.924029427,1,1,1.37320781453,142.317783233,1,1,0.501303109806,5,6.5,32,bw,99.7839371135,2019_jun_10_1310,001,256,20,5,alba,Experiment_EEG_version,20,
Nonliving_Things,../experiment_stimuli/bw_bc_bl/Nonliving_Things/Furniture/lectern_8.jpg,Furniture,0,lectern,0,26,26,47,144.551995954,nV_V,1,144.556740965,145.814645393,1,1,0.120512770489,145.965749921,1,1,1.9745124178,5,7.5,32,bw,99.7839371135,2019_jun_10_1310,001,256,20,5,alba,Experiment_EEG_version,20,
Living_Things,../experiment_stimuli/bw_bc_bl/Living_Things/Marine_creatures/shark_9.jpg,Marine_creatures,0,shark,0,27,27,75,149.673149231,nV_V,2,149.677923558,150.945819704,1,2,1.16275144508,152.129098296,3,0,1.23289606487,5,6.0,32,bw,99.7839371135,2019_jun_10_1310,001,256,20,5,alba,Experiment_EEG_version,20,
Living_Things,../experiment_stimuli/bw_bc_bl/Living_Things/Animals/rhino_14.jpg,Animals,0,rhino,0,28,28,68,155.094930673,nV_V,2,155.10066173,156.337541956,0,1,0.270815132651,156.62889922,1,1,0.531368709635,5,6.5,32,bw,99.7839371135,2019_jun_10_1310,001,256,20,5,alba,Experiment_EEG_version,20,
Living_Things,../experiment_stimuli/bw_bc_bl/Living_Things/Animals/zebra_8.jpg,Animals,0,zebra,0,29,29,95,158.893178145,V_nV,1,158.898988979,160.145805116,0,2,1.15273297252,161.319106925,2,0,0.591525922995,5,7.5,32,bw,99.7839371135,2019_jun_10_1310,001,256,20,5,alba,Experiment_EEG_version,20,
Nonliving_Things,../experiment_stimuli/bw_bc_bl/Nonliving_Things/Musical_Inst/saxophone_17.jpg,Musical_Inst,0,saxophone,0,30,30,72,163.64350405,V_nV,2,163.648391588,164.886121122,0,1,0.290846966673,165.197555805,1,1,0.60152196791,5,6.0,32,bw,99.7839371135,2019_jun_10_1310,001,256,20,5,alba,Experiment_EEG_version,20,
Living_Things,../experiment_stimuli/bw_bc_bl/Living_Things/Insects/butterfly_26.jpg,Insects,0,butterfly,0,31,31,10,167.5319575,nV_V,2,167.539540365,168.794607654,1,2,0.220721774735,169.035890243,1,1,0.541393302847,5,8.0,32,bw,99.7839371135,2019_jun_10_1310,001,256,20,5,alba,Experiment_EEG_version,20,
Living_Things,../experiment_stimuli/bw_bc_bl/Living_Things/Birds/seagull_0.jpg,Birds,0,seagull,0,32,32,74,171.310179684,nV_V,2,171.315942559,172.602886193,0,1,0.451198338531,173.074659955,1,1,0.771892065648,5,6.0,32,bw,99.7839371135,2019_jun_10_1310,001,256,20,5,alba,Experiment_EEG_version,20,
Living_Things,../experiment_stimuli/bw_bc_bl/Living_Things/Animals/elephant_0.jpg,Animals,0,elephant,0,33,33,27,175.579458789,V_nV,1,175.585193052,176.882193185,1,1,0.561461504083,177.464231334,3,0,0.441021627747,5,6.0,32,bw,99.7839371135,2019_jun_10_1310,001,256,20,5,alba,Experiment_EEG_version,20,
Living_Things,../experiment_stimuli/bw_bc_bl/Living_Things/Marine_creatures/crab_8.jpg,Marine_creatures,0,crab,0,34,34,21,179.638308702,V_nV,1,179.64336511,180.910953844,1,1,0.501312064938,181.432833001,2,0,6.22374762595,5,6.0,32,bw,99.7839371135,2019_jun_10_1310,001,256,20,5,alba,Experiment_EEG_version,20,
Nonliving_Things,../experiment_stimuli/bw_bc_bl/Nonliving_Things/Kitchen_Uten/small-saucepan_22.jpg,Kitchen_Uten,0,small-saucepan,0,35,35,77,189.389491508,V_nV,2,189.395379247,190.652130136,1,2,1.04232695559,191.715021504,1,1,1.05250615953,5,6.5,32,bw,99.7839371135,2019_jun_10_1310,001,256,20,5,alba,Experiment_EEG_version,20,
Nonliving_Things,../experiment_stimuli/bw_bc_bl/Nonliving_Things/Furniture/rocking-chair_7.jpg,Furniture,0,rocking-chair,0,36,36,69,194.500594554,nV_V,1,194.505693608,195.783284759,1,1,0.481268396601,196.285116001,3,0,2.06470967457,5,8.0,32,bw,99.7839371135,2019_jun_10_1310,001,256,20,5,alba,Experiment_EEG_version,20,
Nonliving_Things,../experiment_stimuli/bw_bc_bl/Nonliving_Things/Furniture/Chest-of-drawers_1.jpg,Furniture,0,Chest-of-drawers,0,37,37,0,200.082730226,V_nV,2,200.087644321,201.345378947,1,2,1.11266454635,202.47860462,1,1,0.932237840723,5,6.0,32,bw,99.7839371135,2019_jun_10_1310,001,256,20,5,alba,Experiment_EEG_version,20,
Living_Things,../experiment_stimuli/bw_bc_bl/Living_Things/Animals/lioness_23.jpg,Animals,0,lioness,0,38,38,48,205.143736136,V_nV,1,205.148738827,206.426426454,1,1,0.511335383635,206.958328329,3,0,0.431144693866,5,8.0,32,bw,99.7839371135,2019_jun_10_1310,001,256,20,5,alba,Experiment_EEG_version,20,
Living_Things,../experiment_stimuli/bw_bc_bl/Living_Things/Marine_creatures/sperm-whale_4.jpg,Marine_creatures,0,sperm-whale,0,39,39,80,209.122395828,V_nV,1,209.129137419,210.375030701,1,1,1.45337997843,211.848957054,1,1,0.340954143554,5,6.5,32,bw,99.7839371135,2019_jun_10_1310,001,256,20,5,alba,Experiment_EEG_version,20,
Nonliving_Things,../experiment_stimuli/bw_bc_bl/Nonliving_Things/Buildings/granary_23.jpg,Buildings,0,granary,0,40,40,35,213.922832319,nV_V,1,213.927816296,215.205513803,1,1,0.7618788369,215.987947187,3,0,0.421121024992,5,6.0,32,bw,99.7839371135,2019_jun_10_1310,001,256,20,5,alba,Experiment_EEG_version,20,
Living_Things,../experiment_stimuli/bw_bc_bl/Living_Things/Animals/cat_26.jpg,Animals,0,cat,0,41,41,13,218.141997432,nV_V,2,218.146850904,219.394625214,1,2,0.340967579279,219.756134804,1,1,0.290841297712,5,6.0,32,bw,99.7839371135,2019_jun_10_1310,001,256,20,5,alba,Experiment_EEG_version,20,
Living_Things,../experiment_stimuli/bw_bc_bl/Living_Things/Marine_creatures/manatee_4.jpg,Marine_creatures,0,manatee,0,42,42,52,221.779903753,V_nV,1,221.784668616,223.052572079,1,1,0.651663708966,223.724806925,3,0,0.371026686393,5,7.0,32,bw,99.7839371135,2019_jun_10_1310,001,256,20,5,alba,Experiment_EEG_version,20,
Living_Things,../experiment_stimuli/bw_bc_bl/Living_Things/Birds/ostrich_6.jpg,Birds,0,ostrich,0,43,43,56,225.828708478,V_nV,1,225.833581983,227.071314712,1,1,0.582476169337,227.674352395,1,1,0.280847289599,5,7.5,32,bw,99.7839371135,2019_jun_10_1310,001,256,20,5,alba,Experiment_EEG_version,20,
Nonliving_Things,../experiment_stimuli/bw_bc_bl/Nonliving_Things/Musical_Inst/violin_1.jpg,Musical_Inst,0,violin,0,44,44,92,229.687094262,nV_V,1,229.692009879,230.939724059,1,1,0.481265750714,231.441534511,2,0,1.03246602183,5,7.0,32,bw,99.7839371135,2019_jun_10_1310,001,256,20,5,alba,Experiment_EEG_version,20,
Nonliving_Things,../experiment_stimuli/bw_bc_bl/Nonliving_Things/Vehicles/plane_24.jpg,Vehicles,0,plane,0,45,45,64,234.206924211,V_nV,2,234.212001541,235.449544851,1,2,0.892155189067,236.362223634,1,1,0.230716139544,5,6.5,32,bw,99.7839371135,2019_jun_10_1310,001,256,20,5,alba,Experiment_EEG_version,20,
Nonliving_Things,../experiment_stimuli/bw_bc_bl/Nonliving_Things/Buildings/cathedral_8.jpg,Buildings,0,cathedral,0,46,46,14,238.325889064,nV_V,1,238.332917301,239.578517688,1,1,1.08259544289,240.681650874,1,1,0.230561476201,5,7.5,32,bw,99.7839371135,2019_jun_10_1310,001,256,20,5,alba,Experiment_EEG_version,20,
Nonliving_Things,../experiment_stimuli/bw_bc_bl/Nonliving_Things/Furniture/table_13.jpg,Furniture,0,table,0,47,47,81,242.645275327,V_nV,2,242.650143032,243.917935992,1,2,6.19369284203,250.132198795,1,1,0.320933580399,5,7.5,32,bw,99.7839371135,2019_jun_10_1310,001,256,20,5,alba,Experiment_EEG_version,20,
Living_Things,../experiment_stimuli/bw_bc_bl/Living_Things/Birds/penguin_14.jpg,Birds,0,penguin,0,48,48,61,252.186009227,nV_V,2,252.190894747,253.478740728,1,2,0.691728649661,254.19100899,3,0,1.28300735494,5,7.5,32,bw,99.7839371135,2019_jun_10_1310,001,256,20,5,alba,Experiment_EEG_version,20,
Nonliving_Things,../experiment_stimuli/bw_bc_bl/Nonliving_Things/Vehicles/bus_9.jpg,Vehicles,0,bus,0,49,49,9,257.206934361,nV_V,1,257.211688225,258.47959762,1,1,0.922261476051,259.422423933,3,0,2.60588369472,5,6.5,32,bw,99.7839371135,2019_jun_10_1310,001,256,20,5,alba,Experiment_EEG_version,20,
Nonliving_Things,../experiment_stimuli/bw_bc_bl/Nonliving_Things/Kitchen_Uten/coking-pot_18.jpg,Kitchen_Uten,0,coking-pot,0,50,50,18,263.761184224,nV_V,1,263.765906306,264.993770537,1,1,3.01678717835,268.031144696,1,1,0.270809617825,5,6.0,32,bw,99.7839371135,2019_jun_10_1310,001,256,20,5,alba,Experiment_EEG_version,20,
Nonliving_Things,../experiment_stimuli/bw_bc_bl/Nonliving_Things/Buildings/mill_14.jpg,Buildings,0,mill,0,51,51,53,270.034816725,V_nV,2,270.039703835,271.287461098,1,2,0.701586460229,272.009597244,1,1,0.18060250394,5,6.5,32,bw,99.7839371135,2019_jun_10_1310,001,256,20,5,alba,Experiment_EEG_version,20,
Living_Things,../experiment_stimuli/bw_bc_bl/Living_Things/Marine_creatures/narwhal_6.jpg,Marine_creatures,0,narwhal,0,52,52,55,273.923273428,nV_V,2,273.928020608,275.205961881,1,2,1.84423042601,277.070770088,2,0,0.801962244324,5,6.0,32,bw,99.7839371135,2019_jun_10_1310,001,256,20,5,alba,Experiment_EEG_version,20,
Living_Things,../experiment_stimuli/bw_bc_bl/Living_Things/Insects/dragonfly_16.jpg,Insects,0,dragonfly,0,53,53,24,279.605657393,nV_V,2,279.610544316,280.878294122,1,2,0.71177195292,281.610631713,2,0,0.360992420465,5,6.0,32,bw,99.7839371135,2019_jun_10_1310,001,256,20,5,alba,Experiment_EEG_version,20,
Living_Things,../experiment_stimuli/bw_bc_bl/Living_Things/Marine_creatures/dolphin_0.jpg,Marine_creatures,0,dolphin,0,54,54,23,283.704538232,nV_V,2,283.709279454,284.96720613,0,1,0.330937696155,285.318695927,1,1,0.541392971762,5,8.0,32,bw,99.7839371135,2019_jun_10_1310,001,256,20,5,alba,Experiment_EEG_version,20,
Nonliving_Things,../experiment_stimuli/bw_bc_bl/Nonliving_Things/Vehicles/ship_13.jpg,Vehicles,0,ship,0,55,55,76,287.592993288,nV_V,1,287.597764317,288.875682332,1,1,1.31307258923,290.209326352,2,0,0.902191767003,5,6.5,32,bw,99.7839371135,2019_jun_10_1310,001,256,20,5,alba,Experiment_EEG_version,20,
Nonliving_Things,../experiment_stimuli/bw_bc_bl/Nonliving_Things/Furniture/couch_22.jpg,Furniture,0,couch,0,56,56,19,292.844415031,nV_V,1,292.849119603,294.127103638,1,1,1.01242719963,295.160075739,2,0,0.641456527635,5,7.5,32,bw,99.7839371135,2019_jun_10_1310,001,256,20,5,alba,Experiment_EEG_version,20,
Living_Things,../experiment_stimuli/bw_bc_bl/Living_Things/Birds/barn-owl_11.jpg,Birds,0,barn-owl,0,57,57,4,297.53460421,V_nV,1,297.540729224,298.797255788,1,1,1.36303538922,300.180845564,2,0,0.521365713794,5,7.5,32,bw,99.7839371135,2019_jun_10_1310,001,256,20,5,alba,Experiment_EEG_version,20,
Living_Things,../experiment_stimuli/bw_bc_bl/Living_Things/Animals/lynx_0.jpg,Animals,0,lynx,0,58,58,50,302.435261657,nV_V,2,302.440152338,303.687888917,1,2,0.952314707451,304.661545449,1,1,3.19717136584,5,6.5,32,bw,99.7839371135,2019_jun_10_1310,001,256,20,5,alba,Experiment_EEG_version,20,
Living_Things,../experiment_stimuli/bw_bc_bl/Living_Things/Marine_creatures/pomfret_1.jpg,Marine_creatures,0,pomfret,0,59,59,65,309.590817783,V_nV,1,309.595647236,310.873510255,0,2,0.581499123015,311.475611922,2,0,3.67821225477,5,6.5,32,bw,99.7839371135,2019_jun_10_1310,001,256,20,5,alba,Experiment_EEG_version,20,
Nonliving_Things,../experiment_stimuli/bw_bc_bl/Nonliving_Things/Furniture/bedside-table_24.jpg,Furniture,0,bedside-table,0,60,60,6,316.886684822,V_nV,2,316.891492102,318.159353723,1,2,0.711770839989,318.891696292,2,0,0.591505431104,5,6.0,32,bw,99.7839371135,2019_jun_10_1310,001,256,20,5,alba,Experiment_EEG_version,20,
Living_Things,../experiment_stimuli/bw_bc_bl/Living_Things/Animals/tiger_6.jpg,Animals,0,tiger,0,61,61,84,321.21610104,V_nV,1,321.220901106,322.468729443,1,1,0.56143776793,323.05073387,1,1,0.310888363514,5,6.0,32,bw,99.7839371135,2019_jun_10_1310,001,256,20,5,alba,Experiment_EEG_version,20,
Nonliving_Things,../experiment_stimuli/bw_bc_bl/Nonliving_Things/Musical_Inst/piano__23.jpg,Musical_Inst,0,piano,0,62,62,62,325.094524487,V_nV,2,325.099425507,326.387252733,0,1,0.581482078414,326.98928181,3,0,0.381058862433,5,6.5,32,bw,99.7839371135,2019_jun_10_1310,001,256,20,5,alba,Experiment_EEG_version,20,
Living_Things,../experiment_stimuli/bw_bc_bl/Living_Things/Birds/goldfinch_19.jpg,Birds,0,goldfinch,0,63,63,33,329.103238625,V_nV,1,329.108038436,330.365895554,0,2,6.77496015234,337.161417081,1,1,0.841904672328,5,6.0,32,bw,99.7839371135,2019_jun_10_1310,001,256,20,5,alba,Experiment_EEG_version,20,
Nonliving_Things,../experiment_stimuli/bw_bc_bl/Nonliving_Things/Musical_Inst/guitar_25.jpg,Musical_Inst,0,guitar,0,64,64,36,339.736360617,nV_V,1,339.74248727,341.029071081,1,1,0.701753960922,341.751382993,3,0,0.451196813025,5,6.0,32,bw,99.7839371135,2019_jun_10_1310,001,256,20,5,alba,Experiment_EEG_version,20,
Nonliving_Things,../experiment_stimuli/bw_bc_bl/Nonliving_Things/Furniture/filling-cabinet_12.jpg,Furniture,0,filling-cabinet,0,65,65,29,343.935486686,V_nV,2,343.940233272,345.19814678,1,2,1.89439365873,347.123099478,2,0,0.972323541064,5,6.5,32,bw,99.7839371135,2019_jun_10_1310,001,256,20,5,alba,Experiment_EEG_version,20,
Nonliving_Things,../experiment_stimuli/bw_bc_bl/Nonliving_Things/Furniture/bookcase_11.jpg,Furniture,0,bookcase,0,66,66,8,349.828308082,nV_V,1,349.833131836,351.080927992,1,1,0.401100669056,351.50257383,1,1,0.541393106803,5,7.0,32,bw,99.7839371135,2019_jun_10_1310,001,256,20,5,alba,Experiment_EEG_version,20,
Nonliving_Things,../experiment_stimuli/bw_bc_bl/Nonliving_Things/Furniture/lamp_15.jpg,Furniture,0,lamp,0,67,67,46,353.77689366,V_nV,2,353.781653648,355.039536547,1,2,0.541234293953,355.60131805,3,0,0.441219917964,5,7.5,32,bw,99.7839371135,2019_jun_10_1310,001,256,20,5,alba,Experiment_EEG_version,20,
Living_Things,../experiment_stimuli/bw_bc_bl/Living_Things/Animals/giraffe_23.jpg,Animals,0,giraffe,0,68,68,32,357.775579299,V_nV,1,357.780420808,359.018188191,1,1,0.962333541363,360.001069092,1,1,0.621564146597,5,6.0,32,bw,99.7839371135,2019_jun_10_1310,001,256,20,5,alba,Experiment_EEG_version,20,
Living_Things,../experiment_stimuli/bw_bc_bl/Living_Things/Marine_creatures/lobster_18.jpg,Marine_creatures,0,lobster,0,69,69,49,362.365574428,nV_V,2,362.37182227,363.638231107,0,1,0.691738314927,364.350539064,2,0,0.381048768293,5,6.0,32,bw,99.7839371135,2019_jun_10_1310,001,256,20,5,alba,Experiment_EEG_version,20,
Living_Things,../experiment_stimuli/bw_bc_bl/Living_Things/Animals/armadillo_16.jpg,Animals,0,armadillo,0,70,70,1,366.464477124,V_nV,1,366.469397041,367.717095301,0,2,0.842067602091,368.579734909,2,0,0.391111026984,5,7.5,32,bw,99.7839371135,2019_jun_10_1310,001,256,20,5,alba,Experiment_EEG_version,20,
Nonliving_Things,../experiment_stimuli/bw_bc_bl/Nonliving_Things/Vehicles/boat_14.jpg,Vehicles,0,boat,0,71,71,7,370.703684618,V_nV,2,370.708478429,371.956331461,1,2,0.260787118692,372.237669135,2,0,0.350985706318,5,6.5,32,bw,99.7839371135,2019_jun_10_1310,001,256,20,5,alba,Experiment_EEG_version,20,
Living_Things,../experiment_stimuli/bw_bc_bl/Living_Things/Animals/cow_24.jpg,Animals,0,cow,0,72,72,20,374.321589523,nV_V,2,374.327753603,375.554137788,0,1,0.641613525338,376.216313158,1,1,0.280840658117,5,6.0,32,bw,99.7839371135,2019_jun_10_1310,001,256,20,5,alba,Experiment_EEG_version,20,
Nonliving_Things,../experiment_stimuli/bw_bc_bl/Nonliving_Things/Kitchen_Uten/frying-pan_14.jpg,Kitchen_Uten,0,frying-pan,0,73,73,31,378.230047378,nV_V,1,378.234835761,379.482680228,1,1,0.791945549194,380.295165566,1,1,0.35097706737,5,6.0,32,bw,99.7839371135,2019_jun_10_1310,001,256,20,5,alba,Experiment_EEG_version,20,
Living_Things,../experiment_stimuli/bw_bc_bl/Living_Things/Birds/magpie_4.jpg,Birds,0,magpie,0,74,74,51,382.379087116,nV_V,2,382.383906896,383.651749547,0,1,1.05251832493,384.724829709,2,0,0.270804692991,5,6.0,32,bw,99.7839371135,2019_jun_10_1310,001,256,20,5,alba,Experiment_EEG_version,20,
Nonliving_Things,../experiment_stimuli/bw_bc_bl/Nonliving_Things/Buildings/house_13.jpg,Buildings,0,house,0,75,75,41,386.72853875,nV_V,1,386.733296892,388.00120014,1,1,1.4333350705,389.455130393,2,0,0.8220289452,5,6.5,32,bw,99.7839371135,2019_jun_10_1310,001,256,20,5,alba,Experiment_EEG_version,20,
Living_Things,../experiment_stimuli/bw_bc_bl/Living_Things/Insects/scorpion_8.jpg,Insects,0,scorpion,0,76,76,73,392.010012269,V_nV,1,392.016303461,393.272660998,1,1,1.33312052069,394.62633427,1,1,0.310892096255,5,6.0,32,bw,99.7839371135,2019_jun_10_1310,001,256,20,5,alba,Experiment_EEG_version,20,
Living_Things,../experiment_stimuli/bw_bc_bl/Living_Things/Birds/raven_0.jpg,Birds,0,raven,0,77,77,67,396.670141443,nV_V,2,396.675066906,397.94283317,0,1,1.77408192726,399.737473051,2,0,0.401083192322,5,6.0,32,bw,99.7839371135,2019_jun_10_1310,001,256,20,5,alba,Experiment_EEG_version,20,
Living_Things,../experiment_stimuli/bw_bc_bl/Living_Things/Birds/partridge_10.jpg,Birds,0,partridge,0,78,78,59,401.87145923,nV_V,2,401.876231308,403.134105252,1,2,0.89216804225,404.046827624,3,0,0.922223059461,5,7.5,32,bw,99.7839371135,2019_jun_10_1310,001,256,20,5,alba,Experiment_EEG_version,20,
Nonliving_Things,../experiment_stimuli/bw_bc_bl/Nonliving_Things/Vehicles/van_4.jpg,Vehicles,0,van,0,79,79,91,406.701957651,nV_V,1,406.706695233,407.94456872,0,2,0.350979149807,408.316095061,1,1,0.381048189476,5,6.0,32,bw,99.7839371135,2019_jun_10_1310,001,256,20,5,alba,Experiment_EEG_version,20,
Living_Things,../experiment_stimuli/bw_bc_bl/Living_Things/Birds/pigeon_23.jpg,Birds,0,pigeon,0,80,80,63,410.430056466,nV_V,2,410.434845905,411.692715007,1,2,0.721790940966,412.435039849,2,0,0.330935772043,5,7.0,32,bw,99.7839371135,2019_jun_10_1310,001,256,20,5,alba,Experiment_EEG_version,20,
Nonliving_Things,../experiment_stimuli/bw_bc_bl/Nonliving_Things/Vehicles/car_11.jpg,Vehicles,0,car,0,81,81,11,414.498906412,V_nV,2,414.503688287,415.751538006,1,2,0.631594206207,416.403691328,3,0,0.340979815926,5,6.5,32,bw,99.7839371135,2019_jun_10_1310,001,256,20,5,alba,Experiment_EEG_version,20,
Living_Things,../experiment_stimuli/bw_bc_bl/Living_Things/Birds/kiwi_12.jpg,Birds,0,kiwi,0,82,82,44,418.47755983,V_nV,1,418.482283055,419.710151937,0,2,0.190636051819,419.921328014,1,1,0.822011911776,5,6.0,32,bw,99.7839371135,2019_jun_10_1310,001,256,20,5,alba,Experiment_EEG_version,20,
Nonliving_Things,../experiment_stimuli/bw_bc_bl/Nonliving_Things/Musical_Inst/tuba_24.jpg,Musical_Inst,0,tuba,0,83,83,89,422.476249405,V_nV,2,422.482651354,423.738901006,1,2,0.471248359885,424.230694752,3,0,0.310887912288,5,6.5,32,bw,99.7839371135,2019_jun_10_1310,001,256,20,5,alba,Experiment_EEG_version,20,
Nonliving_Things,../experiment_stimuli/bw_bc_bl/Nonliving_Things/Musical_Inst/drum_2.jpg,Musical_Inst,0,drum,0,84,84,25,426.274532677,V_nV,2,426.279287725,427.507100573,0,1,0.53137753671,428.059042962,1,1,0.280835925601,5,6.0,32,bw,99.7839371135,2019_jun_10_1310,001,256,20,5,alba,Experiment_EEG_version,20,
Nonliving_Things,../experiment_stimuli/bw_bc_bl/Nonliving_Things/Buildings/castle_24.jpg,Buildings,0,castle,0,85,85,12,430.082790129,nV_V,1,430.087596692,431.355460659,0,2,0.310900189914,431.686915686,1,1,0.340954913758,5,6.5,32,bw,99.7839371135,2019_jun_10_1310,001,256,20,5,alba,Experiment_EEG_version,20,
Living_Things,../experiment_stimuli/bw_bc_bl/Living_Things/Animals/tapir_3.jpg,Animals,0,tapir,0,86,86,82,433.760786492,V_nV,1,433.765597401,435.043475224,1,1,1.96449280856,437.028530866,2,0,0.811986777466,5,6.0,32,bw,99.7839371135,2019_jun_10_1310,001,256,20,5,alba,Experiment_EEG_version,20,
Living_Things,../experiment_stimuli/bw_bc_bl/Living_Things/Marine_creatures/whale_12.jpg,Marine_creatures,0,whale,0,87,87,94,439.573420457,V_nV,1,439.57817466,440.836077498,1,1,0.89216110995,441.748789769,2,0,0.431146604009,5,6.0,32,bw,99.7839371135,2019_jun_10_1310,001,256,20,5,alba,Experiment_EEG_version,20,
Living_Things,../experiment_stimuli/bw_bc_bl/Living_Things/Birds/duck_5.jpg,Birds,0,duck,0,88,88,26,443.922892358,V_nV,1,443.927681139,445.17550405,1,1,1.30305887572,446.499115154,1,1,0.250759033021,5,6.0,32,bw,99.7839371135,2019_jun_10_1310,001,256,20,5,alba,Experiment_EEG_version,20,
Living_Things,../experiment_stimuli/bw_bc_bl/Living_Things/Animals/hippopotamus_2.jpg,Animals,0,hippopotamus,0,89,89,39,448.482796001,nV_V,2,448.487570906,449.745440173,0,1,2.79629587429,452.562290802,1,1,0.20064659277,5,7.5,32,bw,99.7839371135,2019_jun_10_1310,001,256,20,5,alba,Experiment_EEG_version,20,
Living_Things,../experiment_stimuli/bw_bc_bl/Living_Things/Birds/sparrow_26.jpg,Birds,0,sparrow,0,90,90,79,454.495867595,V_nV,1,454.500679856,455.778564018,1,1,1.09259832976,456.891743147,2,0,0.521347939502,5,6.0,32,bw,99.7839371135,2019_jun_10_1310,001,256,20,5,alba,Experiment_EEG_version,20,
Living_Things,../experiment_stimuli/bw_bc_bl/Living_Things/Birds/rooster_14.jpg,Birds,0,rooster,0,91,91,70,459.157155398,V_nV,1,459.162029336,460.418648369,1,1,0.451233556494,460.890468804,2,0,0.431151641067,5,6.5,32,bw,99.7839371135,2019_jun_10_1310,001,256,20,5,alba,Experiment_EEG_version,20,
Living_Things,../experiment_stimuli/bw_bc_bl/Living_Things/Animals/cheetah_23.jpg,Animals,0,cheetah,0,92,92,16,463.054471496,V_nV,1,463.059382538,464.317131898,1,1,0.330966831185,464.668648488,1,1,0.330929234158,5,7.0,32,bw,99.7839371135,2019_jun_10_1310,001,256,20,5,alba,Experiment_EEG_version,20,
Living_Things,../experiment_stimuli/bw_bc_bl/Living_Things/Birds/goose_25.jpg,Birds,0,goose,0,93,93,34,466.732473137,V_nV,1,466.737306515,468.025191315,1,1,0.471252668649,468.516996272,3,0,0.631594778039,5,6.0,32,bw,99.7839371135,2019_jun_10_1310,001,256,20,5,alba,Experiment_EEG_version,20,
Nonliving_Things,../experiment_stimuli/bw_bc_bl/Nonliving_Things/Tools/hammer_7.jpg,Tools,0,hammer,0,94,94,37,470.891543006,V_nV,2,470.896355669,472.154173998,0,1,1.13271259703,473.307441925,2,0,0.511329132132,5,7.0,32,bw,99.7839371135,2019_jun_10_1310,001,256,20,5,alba,Experiment_EEG_version,20,
Nonliving_Things,../experiment_stimuli/bw_bc_bl/Nonliving_Things/Vehicles/tractor_0.jpg,Vehicles,0,tractor,0,95,95,86,475.551648262,nV_V,1,475.556369043,476.794253571,1,1,0.170595068019,476.985410138,2,0,0.651633983478,5,6.0,32,bw,99.7839371135,2019_jun_10_1310,001,256,20,5,alba,Experiment_EEG_version,20,
