category,probe_path,subcategory,fixation_duration,label,trials.thisRepN,trials.thisTrialN,trials.thisN,trials.thisIndex,image_onset_time,response_window,correctAns,probe_onset,discrim_resptime,response.corr,response.keys,response.rt,visible_resptime,visible.keys,visible.corr,visible.rt,probeFrames,jitter2,n_square,experiment_color,frameRate,date,session,image_size,premask_dur,probeFrames,participant,expName,postmask_dur,
Nonliving_Things,../experiment_stimuli/bw_bc_bl/Nonliving_Things/Buildings/church_2.jpg,Buildings,0,church,0,0,0,17,3.71628371719,nV_V,1,3.737323476,4.99896259932,1,1,4.48999008397,9.51980030863,2,0,0.140514160506,5,7.5,32,bw,99.7860402797,2019_jun_13_0953,012,256,20,5,alba,Experiment_EEG_version,20,
Nonliving_Things,../experiment_stimuli/bw_bc_bl/Nonliving_Things/Buildings/palace_8.jpg,Buildings,0,palace,0,1,1,58,11.3929929971,V_nV,2,11.3979188777,12.6556108017,1,2,0.691738116089,13.3679262954,1,1,0.060348124709,5,6.5,32,bw,99.7860402797,2019_jun_13_0953,012,256,20,5,alba,Experiment_EEG_version,20,
Nonliving_Things,../experiment_stimuli/bw_bc_bl/Nonliving_Things/Vehicles/ship_4.jpg,Vehicles,0,ship,0,2,2,76,15.1611607489,nV_V,1,15.1659269105,16.4338229173,1,1,1.74386358913,18.1982500618,2,0,0.150553238578,5,6.5,32,bw,99.7860402797,2019_jun_13_0953,012,256,20,5,alba,Experiment_EEG_version,20,
Living_Things,../experiment_stimuli/bw_bc_bl/Living_Things/Animals/rhino_1.jpg,Animals,0,rhino,0,3,3,68,20.0818498223,nV_V,2,20.0866507688,21.3445011005,1,2,1.19266465958,22.5577197475,3,0,0.130499070976,5,6.0,32,bw,99.7860402797,2019_jun_13_0953,012,256,20,5,alba,Experiment_EEG_version,20,
Living_Things,../experiment_stimuli/bw_bc_bl/Living_Things/Birds/sparrow_6.jpg,Birds,0,sparrow,0,4,4,79,24.4212975698,nV_V,2,24.426215142,25.6538698608,0,1,0.270822854713,25.9452494136,1,1,1.3732128446,5,6.0,32,bw,99.7860402797,2019_jun_13_0953,012,256,20,5,alba,Experiment_EEG_version,20,
Living_Things,../experiment_stimuli/bw_bc_bl/Living_Things/Marine_creatures/shark_7.jpg,Marine_creatures,0,shark,0,5,5,75,29.0513502941,nV_V,2,29.0562097621,30.2939505996,1,2,0.33096293686,30.6454638964,1,1,0.1204808685,5,6.5,32,bw,99.7860402797,2019_jun_13_0953,012,256,20,5,alba,Experiment_EEG_version,20,
Nonliving_Things,../experiment_stimuli/bw_bc_bl/Nonliving_Things/Buildings/castle_1.jpg,Buildings,0,castle,0,6,6,12,32.49885571,V_nV,2,32.5041840998,33.7715103184,0,1,1.27299459232,35.0650741309,2,0,0.230712913908,5,6.0,32,bw,99.7860402797,2019_jun_13_0953,012,256,20,5,alba,Experiment_EEG_version,20,
Living_Things,../experiment_stimuli/bw_bc_bl/Living_Things/Marine_creatures/narwhal_19.jpg,Marine_creatures,0,narwhal,0,7,7,55,37.0287136026,nV_V,2,37.0341573632,38.2913517826,0,1,0.361078016926,38.6729529304,1,1,2.3753882437,5,6.0,32,bw,99.7860402797,2019_jun_13_0953,012,256,20,5,alba,Experiment_EEG_version,20,
Nonliving_Things,../experiment_stimuli/bw_bc_bl/Nonliving_Things/Vehicles/plane_9.jpg,Vehicles,0,plane,0,8,8,64,42.781204015,V_nV,2,42.7861121781,44.053864473,1,2,0.260793802794,44.3352168119,1,1,0.100434280001,5,6.0,32,bw,99.7860402797,2019_jun_13_0953,012,256,20,5,alba,Experiment_EEG_version,20,
Living_Things,../experiment_stimuli/bw_bc_bl/Living_Things/Animals/tapir_11.jpg,Animals,0,tapir,0,9,9,82,46.1685881307,V_nV,1,46.1734043551,47.4712911993,1,1,3.13705778355,50.6289139548,2,0,0.932250276674,5,6.0,32,bw,99.7860402797,2019_jun_13_0953,012,256,20,5,alba,Experiment_EEG_version,20,
Living_Things,../experiment_stimuli/bw_bc_bl/Living_Things/Birds/ostrich_11.jpg,Birds,0,ostrich,0,10,10,56,53.2940495526,nV_V,2,53.2988838335,54.5867727348,1,2,1.0725607411,55.6798751885,1,1,0.150548854843,5,8.0,32,bw,99.7860402797,2019_jun_13_0953,012,256,20,5,alba,Experiment_EEG_version,20,
Nonliving_Things,../experiment_stimuli/bw_bc_bl/Nonliving_Things/Furniture/bedside-table_12.jpg,Furniture,0,bedside-table,0,11,11,6,57.5633255909,V_nV,2,57.5693251253,58.8760862225,1,2,2.04467988992,60.9413388404,3,0,0.320912569296,5,6.5,32,bw,99.7860402797,2019_jun_13_0953,012,256,20,5,alba,Experiment_EEG_version,20,
Living_Things,../experiment_stimuli/bw_bc_bl/Living_Things/Animals/lynx_3.jpg,Animals,0,lynx,0,12,12,50,62.9951430736,nV_V,2,63.000069424,64.2878575409,1,2,1.41330141341,65.7216966492,2,0,0.250763615128,5,6.5,32,bw,99.7860402797,2019_jun_13_0953,012,256,20,5,alba,Experiment_EEG_version,20,
Nonliving_Things,../experiment_stimuli/bw_bc_bl/Nonliving_Things/Furniture/lectern_20.jpg,Furniture,0,lectern,0,13,13,47,67.7053784016,V_nV,2,67.7103587249,68.9880706631,0,1,3.38758834172,72.3962201239,2,0,0.200662862975,5,6.5,32,bw,99.7860402797,2019_jun_13_0953,012,256,20,5,alba,Experiment_EEG_version,20,
Nonliving_Things,../experiment_stimuli/bw_bc_bl/Nonliving_Things/Kitchen_Uten/frying-pan_25.jpg,Kitchen_Uten,0,frying-pan,0,14,14,31,74.3297828645,nV_V,1,74.3346840763,75.6024461947,1,1,1.1326838797,76.755687227,2,0,0.461234014481,5,6.0,32,bw,99.7860402797,2019_jun_13_0953,012,256,20,5,alba,Experiment_EEG_version,20,
Nonliving_Things,../experiment_stimuli/bw_bc_bl/Nonliving_Things/Musical_Inst/piano__10.jpg,Musical_Inst,0,piano,0,15,15,62,78.9498297512,V_nV,2,78.9546788321,80.2124740854,1,2,0.270812602714,80.5038489876,1,1,0.120529424399,5,7.5,32,bw,99.7860402797,2019_jun_13_0953,012,256,20,5,alba,Experiment_EEG_version,20,
Nonliving_Things,../experiment_stimuli/bw_bc_bl/Nonliving_Things/Furniture/lamp_12.jpg,Furniture,0,lamp,0,16,16,46,82.3572455384,nV_V,1,82.3620972508,83.6499432917,1,1,2.78628338175,86.456779364,3,0,0.431157159619,5,6.5,32,bw,99.7860402797,2019_jun_13_0953,012,256,20,5,alba,Experiment_EEG_version,20,
Living_Things,../experiment_stimuli/bw_bc_bl/Living_Things/Marine_creatures/pomfret_7.jpg,Marine_creatures,0,pomfret,0,17,17,65,88.620858747,V_nV,1,88.6256221002,89.8935149796,0,2,0.791946631856,90.7060301173,3,0,0.200658795424,5,6.0,32,bw,99.7860402797,2019_jun_13_0953,012,256,20,5,alba,Experiment_EEG_version,20,
Nonliving_Things,../experiment_stimuli/bw_bc_bl/Nonliving_Things/Vehicles/motorbike_26.jpg,Vehicles,0,motorbike,0,18,18,54,92.6395822722,V_nV,2,92.6460289503,93.8922090502,1,2,6.87517139455,100.787921008,3,0,0.260783844162,5,6.0,32,bw,99.7860402797,2019_jun_13_0953,012,256,20,5,alba,Experiment_EEG_version,20,
Living_Things,../experiment_stimuli/bw_bc_bl/Living_Things/Animals/zebra_9.jpg,Animals,0,zebra,0,19,19,95,102.781631564,nV_V,2,102.786585087,104.014214712,1,2,0.22070856858,104.255494869,1,1,0.120528356638,5,6.0,32,bw,99.7860402797,2019_jun_13_0953,012,256,20,5,alba,Experiment_EEG_version,20,
Living_Things,../experiment_stimuli/bw_bc_bl/Living_Things/Birds/kiwi_24.jpg,Birds,0,kiwi,0,20,20,44,106.108863608,nV_V,2,106.11394652,107.351465508,0,1,0.270830587018,107.642853553,1,1,0.200664773118,5,6.0,32,bw,99.7860402797,2019_jun_13_0953,012,256,20,5,alba,Experiment_EEG_version,20,
Living_Things,../experiment_stimuli/bw_bc_bl/Living_Things/Animals/turtle_4.jpg,Animals,0,turtle,0,21,21,90,109.576409786,nV_V,2,109.581933711,110.829029377,0,1,0.120473695453,110.970056601,1,1,2.24510703096,5,6.0,32,bw,99.7860402797,2019_jun_13_0953,012,256,20,5,alba,Experiment_EEG_version,20,
Nonliving_Things,../experiment_stimuli/bw_bc_bl/Nonliving_Things/Tools/axe_23.jpg,Tools,0,axe,0,22,22,3,114.948091133,V_nV,2,114.953875348,116.220752881,0,1,0.671687632333,116.913000392,1,1,0.240741928108,5,6.5,32,bw,99.7860402797,2019_jun_13_0953,012,256,20,5,alba,Experiment_EEG_version,20,
Nonliving_Things,../experiment_stimuli/bw_bc_bl/Nonliving_Things/Musical_Inst/tuba_1.jpg,Musical_Inst,0,tuba,0,23,23,89,118.88664757,nV_V,1,118.891667697,120.18937968,1,1,1.96449932829,122.174433382,3,0,0.260798967909,5,6.5,32,bw,99.7860402797,2019_jun_13_0953,012,256,20,5,alba,Experiment_EEG_version,20,
Living_Things,../experiment_stimuli/bw_bc_bl/Living_Things/Animals/cat_7.jpg,Animals,0,cat,0,24,24,13,124.168123653,V_nV,1,124.173102721,125.440794426,1,1,1.40327532031,126.864631406,2,0,0.340979571454,5,6.0,32,bw,99.7860402797,2019_jun_13_0953,012,256,20,5,alba,Experiment_EEG_version,20,
Living_Things,../experiment_stimuli/bw_bc_bl/Living_Things/Birds/raven_17.jpg,Birds,0,raven,0,25,25,67,128.938499646,nV_V,2,128.944326946,130.201144916,0,1,0.340965548996,130.562666637,1,1,0.20065059606,5,6.5,32,bw,99.7860402797,2019_jun_13_0953,012,256,20,5,alba,Experiment_EEG_version,20,
Living_Things,../experiment_stimuli/bw_bc_bl/Living_Things/Birds/owl_6.jpg,Birds,0,owl,0,26,26,57,132.496234577,V_nV,1,132.501102154,133.788944943,1,1,1.84422955755,135.663741635,3,0,0.210725982208,5,7.5,32,bw,99.7860402797,2019_jun_13_0953,012,256,20,5,alba,Experiment_EEG_version,20,
Nonliving_Things,../experiment_stimuli/bw_bc_bl/Nonliving_Things/Vehicles/bus_25.jpg,Vehicles,0,bus,0,27,27,9,137.607344634,nV_V,1,137.612138678,138.88001426,1,1,1.99458065256,140.895158122,3,0,0.290852838662,5,6.0,32,bw,99.7860402797,2019_jun_13_0953,012,256,20,5,alba,Experiment_EEG_version,20,
Living_Things,../experiment_stimuli/bw_bc_bl/Living_Things/Birds/hen_14.jpg,Birds,0,hen,0,28,28,38,142.918893869,V_nV,1,142.924641106,144.171516433,0,2,0.421157032717,144.61323854,1,1,0.120547547936,5,6.5,32,bw,99.7860402797,2019_jun_13_0953,012,256,20,5,alba,Experiment_EEG_version,20,
Living_Things,../experiment_stimuli/bw_bc_bl/Living_Things/Birds/penguin_3.jpg,Birds,0,penguin,0,29,29,61,146.466602297,V_nV,1,146.472408868,147.72924724,0,2,2.34532447159,150.095133583,1,1,0.110472443979,5,6.5,32,bw,99.7860402797,2019_jun_13_0953,012,256,20,5,alba,Experiment_EEG_version,20,
Nonliving_Things,../experiment_stimuli/bw_bc_bl/Nonliving_Things/Furniture/armchair_22.jpg,Furniture,0,armchair,0,30,30,2,151.938500022,V_nV,2,151.94324189,153.221190223,0,1,1.35316817695,154.594912181,2,0,0.120479590259,5,6.5,32,bw,99.7860402797,2019_jun_13_0953,012,256,20,5,alba,Experiment_EEG_version,20,
Living_Things,../experiment_stimuli/bw_bc_bl/Living_Things/Birds/seagull_22.jpg,Birds,0,seagull,0,31,31,74,156.448305287,V_nV,1,156.453215499,157.720972538,1,1,0.842059519608,158.583569561,3,0,0.771914873272,5,6.5,32,bw,99.7860402797,2019_jun_13_0953,012,256,20,5,alba,Experiment_EEG_version,20,
Living_Things,../experiment_stimuli/bw_bc_bl/Living_Things/Birds/pelican_0.jpg,Birds,0,pelican,0,32,32,60,161.088399511,V_nV,1,161.09509281,162.34101553,1,1,1.00241233222,163.36399153,1,1,0.240747875534,5,6.5,32,bw,99.7860402797,2019_jun_13_0953,012,256,20,5,alba,Experiment_EEG_version,20,
Living_Things,../experiment_stimuli/bw_bc_bl/Living_Things/Insects/butterfly_10.jpg,Insects,0,butterfly,0,33,33,10,165.337631746,V_nV,1,165.342454034,166.600279392,1,1,3.97888092976,170.599722355,2,0,0.290861631744,5,6.5,32,bw,99.7860402797,2019_jun_13_0953,012,256,20,5,alba,Experiment_EEG_version,20,
Nonliving_Things,../experiment_stimuli/bw_bc_bl/Nonliving_Things/Vehicles/boat_15.jpg,Vehicles,0,boat,0,34,34,7,172.623469293,V_nV,2,172.628288596,173.876094786,1,2,0.0603572218679,173.956982995,1,1,0.200665412005,5,7.5,32,bw,99.7860402797,2019_jun_13_0953,012,256,20,5,alba,Experiment_EEG_version,20,
Living_Things,../experiment_stimuli/bw_bc_bl/Living_Things/Insects/scorpion_16.jpg,Insects,0,scorpion,0,35,35,73,175.890573353,nV_V,2,175.89561069,177.173261016,0,1,0.260784287471,177.454593701,1,1,2.44554029545,5,7.0,32,bw,99.7860402797,2019_jun_13_0953,012,256,20,5,alba,Experiment_EEG_version,20,
Living_Things,../experiment_stimuli/bw_bc_bl/Living_Things/Animals/cheetah_0.jpg,Animals,0,cheetah,0,36,36,16,181.63307522,V_nV,1,181.638069855,182.925765789,1,1,1.93443304021,184.880758374,2,0,0.300926728174,5,6.5,32,bw,99.7860402797,2019_jun_13_0953,012,256,20,5,alba,Experiment_EEG_version,20,
Nonliving_Things,../experiment_stimuli/bw_bc_bl/Nonliving_Things/Buildings/cathedral_6.jpg,Buildings,0,cathedral,0,37,37,14,186.914534288,V_nV,2,186.919439233,188.197231839,1,2,0.641623370815,188.859399209,2,0,0.280827760231,5,6.0,32,bw,99.7860402797,2019_jun_13_0953,012,256,20,5,alba,Experiment_EEG_version,20,
Nonliving_Things,../experiment_stimuli/bw_bc_bl/Nonliving_Things/Musical_Inst/trumpet_4.jpg,Musical_Inst,0,trumpet,0,38,38,88,190.87314761,nV_V,1,190.878215357,192.145813839,1,1,1.60371135594,193.770071847,3,0,0.270818008576,5,6.0,32,bw,99.7860402797,2019_jun_13_0953,012,256,20,5,alba,Experiment_EEG_version,20,
Living_Things,../experiment_stimuli/bw_bc_bl/Living_Things/Marine_creatures/crab_26.jpg,Marine_creatures,0,crab,0,39,39,21,195.77379935,nV_V,2,195.778771749,197.016399302,1,2,0.44118635077,197.488170689,1,1,0.1004417683,5,6.0,32,bw,99.7860402797,2019_jun_13_0953,012,256,20,5,alba,Experiment_EEG_version,20,
Living_Things,../experiment_stimuli/bw_bc_bl/Living_Things/Birds/barn-owl_26.jpg,Birds,0,barn-owl,0,40,40,4,199.321532613,V_nV,1,199.326399325,200.584157519,1,1,0.912209901959,201.516921513,1,1,0.200653844513,5,6.5,32,bw,99.7860402797,2019_jun_13_0953,012,256,20,5,alba,Experiment_EEG_version,20,
Nonliving_Things,../experiment_stimuli/bw_bc_bl/Nonliving_Things/Furniture/bed_21.jpg,Furniture,0,bed,0,41,41,5,203.45049616,V_nV,2,203.455363609,204.743206613,1,2,2.90653891861,207.670290812,1,1,0.1204746617,5,6.5,32,bw,99.7860402797,2019_jun_13_0953,012,256,20,5,alba,Experiment_EEG_version,20,
Nonliving_Things,../experiment_stimuli/bw_bc_bl/Nonliving_Things/Kitchen_Uten/fondue_10.jpg,Kitchen_Uten,0,fondue,0,42,42,30,209.523720562,nV_V,1,209.528519892,210.826426886,0,2,0.751868668478,211.598858053,2,0,0.270810452756,5,6.5,32,bw,99.7860402797,2019_jun_13_0953,012,256,20,5,alba,Experiment_EEG_version,20,
Nonliving_Things,../experiment_stimuli/bw_bc_bl/Nonliving_Things/Buildings/house_5.jpg,Buildings,0,house,0,43,43,41,213.60256009,V_nV,2,213.609471589,214.895276017,1,2,1.71396584064,216.629802559,2,0,0.260799870361,5,6.0,32,bw,99.7860402797,2019_jun_13_0953,012,256,20,5,alba,Experiment_EEG_version,20,
Nonliving_Things,../experiment_stimuli/bw_bc_bl/Nonliving_Things/Furniture/Chest-of-drawers_8.jpg,Furniture,0,Chest-of-drawers,0,44,44,0,218.623477615,nV_V,1,218.629355426,219.906165697,1,1,0.6414611293,220.568194546,2,0,0.711763825268,5,6.5,32,bw,99.7860402797,2019_jun_13_0953,012,256,20,5,alba,Experiment_EEG_version,20,
Nonliving_Things,../experiment_stimuli/bw_bc_bl/Nonliving_Things/Tools/hammer_2.jpg,Tools,0,hammer,0,45,45,37,223.01301692,V_nV,2,223.020115717,224.285687798,1,2,0.771915772464,225.078167306,3,0,0.511337290052,5,8.0,32,bw,99.7860402797,2019_jun_13_0953,012,256,20,5,alba,Experiment_EEG_version,20,
Nonliving_Things,../experiment_stimuli/bw_bc_bl/Nonliving_Things/Musical_Inst/guitar_15.jpg,Musical_Inst,0,guitar,0,46,46,36,227.322389128,nV_V,1,227.327326595,228.575010655,1,1,3.27734617982,231.8729231,1,1,0.22071184637,5,6.5,32,bw,99.7860402797,2019_jun_13_0953,012,256,20,5,alba,Experiment_EEG_version,20,
Nonliving_Things,../experiment_stimuli/bw_bc_bl/Nonliving_Things/Musical_Inst/violin_25.jpg,Musical_Inst,0,violin,0,47,47,92,233.826524648,nV_V,1,233.831467434,235.109216793,1,1,2.12485898612,237.254640014,3,0,0.120482376311,5,6.5,32,bw,99.7860402797,2019_jun_13_0953,012,256,20,5,alba,Experiment_EEG_version,20,
Nonliving_Things,../experiment_stimuli/bw_bc_bl/Nonliving_Things/Kitchen_Uten/teapot_19.jpg,Kitchen_Uten,0,teapot,0,48,48,83,239.108013577,V_nV,2,239.113011396,240.360638156,1,2,1.1226692074,241.503888738,1,1,0.08044135198,5,7.5,32,bw,99.7860402797,2019_jun_13_0953,012,256,20,5,alba,Experiment_EEG_version,20,
Living_Things,../experiment_stimuli/bw_bc_bl/Living_Things/Marine_creatures/lobster_23.jpg,Marine_creatures,0,lobster,0,49,49,49,243.31716999,V_nV,1,243.322213971,244.589827377,1,1,0.751858972944,245.362241766,1,1,0.18062942056,5,6.0,32,bw,99.7860402797,2019_jun_13_0953,012,256,20,5,alba,Experiment_EEG_version,20,
Living_Things,../experiment_stimuli/bw_bc_bl/Living_Things/Marine_creatures/whale_11.jpg,Marine_creatures,0,whale,0,50,50,94,247.275770072,nV_V,2,247.280635716,248.578503952,1,2,0.481285611168,249.080334588,3,0,0.350981307682,5,7.0,32,bw,99.7860402797,2019_jun_13_0953,012,256,20,5,alba,Experiment_EEG_version,20,
Living_Things,../experiment_stimuli/bw_bc_bl/Living_Things/Birds/duck_18.jpg,Birds,0,duck,0,51,51,26,251.164220056,V_nV,1,251.170250722,252.44691663,1,1,1.062559749,253.530041178,3,0,0.651653851848,5,7.5,32,bw,99.7860402797,2019_jun_13_0953,012,256,20,5,alba,Experiment_EEG_version,20,
Living_Things,../experiment_stimuli/bw_bc_bl/Living_Things/Animals/horse_16.jpg,Animals,0,horse,0,52,52,40,255.914546273,V_nV,1,255.919389222,257.177195272,1,1,2.58586404519,259.783616023,3,0,0.260780362878,5,6.0,32,bw,99.7860402797,2019_jun_13_0953,012,256,20,5,alba,Experiment_EEG_version,20,
Living_Things,../experiment_stimuli/bw_bc_bl/Living_Things/Birds/rooster_17.jpg,Birds,0,rooster,0,53,53,70,261.777296256,V_nV,1,261.782185942,263.029921133,0,2,0.250615241937,263.301100677,1,1,0.160628485028,5,7.0,32,bw,99.7860402797,2019_jun_13_0953,012,256,20,5,alba,Experiment_EEG_version,20,
Living_Things,../experiment_stimuli/bw_bc_bl/Living_Things/Birds/pigeon_10.jpg,Birds,0,pigeon,0,54,54,63,265.194731923,nV_V,2,265.199597278,266.457375614,0,1,0.010247612372,266.488173297,1,1,0.240738815628,5,6.0,32,bw,99.7860402797,2019_jun_13_0953,012,256,20,5,alba,Experiment_EEG_version,20,
Living_Things,../experiment_stimuli/bw_bc_bl/Living_Things/Birds/goose_15.jpg,Birds,0,goose,0,55,55,34,268.461831884,V_nV,1,268.466541686,269.744518868,1,1,2.31527008954,272.080342566,3,0,0.290899931453,5,6.5,32,bw,99.7860402797,2019_jun_13_0953,012,256,20,5,alba,Experiment_EEG_version,20,
Nonliving_Things,../experiment_stimuli/bw_bc_bl/Nonliving_Things/Musical_Inst/drum_19.jpg,Musical_Inst,0,drum,0,56,56,25,274.104100932,nV_V,1,274.10893301,275.356717741,0,2,1.4534057565,276.830706541,1,1,1.60370731493,5,6.5,32,bw,99.7860402797,2019_jun_13_0953,012,256,20,5,alba,Experiment_EEG_version,20,
Nonliving_Things,../experiment_stimuli/bw_bc_bl/Nonliving_Things/Furniture/table_10.jpg,Furniture,0,table,0,57,57,81,280.167275049,V_nV,2,280.172113349,281.439943962,1,2,3.8686448615,285.329167811,3,0,0.320971741341,5,6.5,32,bw,99.7860402797,2019_jun_13_0953,012,256,20,5,alba,Experiment_EEG_version,20,
Living_Things,../experiment_stimuli/bw_bc_bl/Living_Things/Birds/hummingbird_17.jpg,Birds,0,hummingbird,0,58,58,42,287.382963007,nV_V,2,287.389053558,288.625569609,1,2,0.431175963953,289.077302771,1,1,0.120532040484,5,6.0,32,bw,99.7860402797,2019_jun_13_0953,012,256,20,5,alba,Experiment_EEG_version,20,
Living_Things,../experiment_stimuli/bw_bc_bl/Living_Things/Marine_creatures/manatee_19.jpg,Marine_creatures,0,manatee,0,59,59,52,290.930674059,V_nV,1,290.935462092,292.183300059,0,2,1.28302433155,293.486897108,1,1,0.180674126837,5,7.0,32,bw,99.7860402797,2019_jun_13_0953,012,256,20,5,alba,Experiment_EEG_version,20,
Nonliving_Things,../experiment_stimuli/bw_bc_bl/Nonliving_Things/Vehicles/tractor_11.jpg,Vehicles,0,tractor,0,60,60,86,295.400394219,V_nV,2,295.406453448,296.683082872,1,2,0.81201341562,297.515673515,2,0,1.44342623744,5,6.5,32,bw,99.7860402797,2019_jun_13_0953,012,256,20,5,alba,Experiment_EEG_version,20,
Nonliving_Things,../experiment_stimuli/bw_bc_bl/Nonliving_Things/Furniture/bookcase_10.jpg,Furniture,0,bookcase,0,61,61,8,300.691904699,V_nV,2,300.696693105,301.964568093,1,2,1.12266538013,303.107797679,2,0,0.250614534598,5,6.0,32,bw,99.7860402797,2019_jun_13_0953,012,256,20,5,alba,Experiment_EEG_version,20,
Living_Things,../experiment_stimuli/bw_bc_bl/Living_Things/Animals/elephant_14.jpg,Animals,0,elephant,0,62,62,27,305.091458462,nV_V,2,305.097545191,306.354106296,1,2,0.892160500865,307.266828409,1,1,0.230715974234,5,7.0,32,bw,99.7860402797,2019_jun_13_0953,012,256,20,5,alba,Experiment_EEG_version,20,
Living_Things,../experiment_stimuli/bw_bc_bl/Living_Things/Animals/cow_23.jpg,Animals,0,cow,0,63,63,20,309.230458523,V_nV,1,309.235231365,310.52318616,1,1,1.30290724616,311.846640793,2,0,0.260779419448,5,6.0,32,bw,99.7860402797,2019_jun_13_0953,012,256,20,5,alba,Experiment_EEG_version,20,
Living_Things,../experiment_stimuli/bw_bc_bl/Living_Things/Animals/hippopotamus_5.jpg,Animals,0,hippopotamus,0,64,64,39,313.84048023,V_nV,1,313.845310665,315.133197029,1,1,0.78193502361,315.935688607,3,0,0.210670080502,5,6.5,32,bw,99.7860402797,2019_jun_13_0953,012,256,20,5,alba,Experiment_EEG_version,20,
Nonliving_Things,../experiment_stimuli/bw_bc_bl/Nonliving_Things/Buildings/factory_3.jpg,Buildings,0,factory,0,65,65,28,317.879266599,V_nV,2,317.883991336,319.131888814,0,1,0.43116165977,319.593636212,1,1,0.240741642658,5,6.0,32,bw,99.7860402797,2019_jun_13_0953,012,256,20,5,alba,Experiment_EEG_version,20,
Nonliving_Things,../experiment_stimuli/bw_bc_bl/Nonliving_Things/Furniture/filling-cabinet_13.jpg,Furniture,0,filling-cabinet,0,66,66,29,321.5673023,V_nV,2,321.573428269,322.829926138,1,2,1.00240652403,323.852880792,1,1,0.270653300919,5,6.0,32,bw,99.7860402797,2019_jun_13_0953,012,256,20,5,alba,Experiment_EEG_version,20,
Nonliving_Things,../experiment_stimuli/bw_bc_bl/Nonliving_Things/Furniture/wardrobe_9.jpg,Furniture,0,wardrobe,0,67,67,93,325.856608476,nV_V,1,325.861309908,327.129277362,1,1,0.992397802416,328.142249384,3,0,0.511334218085,5,6.0,32,bw,99.7860402797,2019_jun_13_0953,012,256,20,5,alba,Experiment_EEG_version,20,
Living_Things,../experiment_stimuli/bw_bc_bl/Living_Things/Insects/dragonfly_5.jpg,Insects,0,dragonfly,0,68,68,24,330.386453492,nV_V,2,330.391289405,331.639080064,1,2,0.320924859028,331.980563719,1,1,0.0904215960763,5,6.0,32,bw,99.7860402797,2019_jun_13_0953,012,256,20,5,alba,Experiment_EEG_version,20,
Nonliving_Things,../experiment_stimuli/bw_bc_bl/Nonliving_Things/Kitchen_Uten/coking-pot_9.jpg,Kitchen_Uten,0,coking-pot,0,69,69,18,333.803881779,V_nV,2,333.809949903,335.066549508,1,2,1.14272785233,336.229826953,3,0,0.150595286861,5,7.0,32,bw,99.7860402797,2019_jun_13_0953,012,256,20,5,alba,Experiment_EEG_version,20,
Nonliving_Things,../experiment_stimuli/bw_bc_bl/Nonliving_Things/Furniture/chair_14.jpg,Furniture,0,chair,0,70,70,15,338.113253502,nV_V,1,338.118071768,339.345833759,1,1,0.260644421447,339.627034176,1,1,0.190650066826,5,6.0,32,bw,99.7860402797,2019_jun_13_0953,012,256,20,5,alba,Experiment_EEG_version,20,
Nonliving_Things,../experiment_stimuli/bw_bc_bl/Nonliving_Things/Kitchen_Uten/pot_7.jpg,Kitchen_Uten,0,pot,0,71,71,66,341.550733795,nV_V,1,341.555474043,342.813378152,1,1,1.41330118431,344.247221455,3,0,0.140573359095,5,6.5,32,bw,99.7860402797,2019_jun_13_0953,012,256,20,5,alba,Experiment_EEG_version,20,
Nonliving_Things,../experiment_stimuli/bw_bc_bl/Nonliving_Things/Kitchen_Uten/small-saucepan_4.jpg,Kitchen_Uten,0,small-saucepan,0,72,72,77,346.12066447,V_nV,2,346.12545374,347.353242739,0,1,0.140527604148,347.514337947,1,1,1.5235418044,5,6.5,32,bw,99.7860402797,2019_jun_13_0953,012,256,20,5,alba,Experiment_EEG_version,20,
Living_Things,../experiment_stimuli/bw_bc_bl/Living_Things/Animals/tiger_10.jpg,Animals,0,tiger,0,73,73,84,350.770797535,nV_V,2,350.775668706,352.033419276,0,1,1.33312570071,353.38711231,1,1,0.29084872175,5,6.0,32,bw,99.7860402797,2019_jun_13_0953,012,256,20,5,alba,Experiment_EEG_version,20,
Nonliving_Things,../experiment_stimuli/bw_bc_bl/Nonliving_Things/Furniture/rocking-chair_19.jpg,Furniture,0,rocking-chair,0,74,74,69,355.410873116,V_nV,2,355.417178225,356.703571899,1,2,1.30307809729,358.027196744,3,0,0.811980919912,5,7.5,32,bw,99.7860402797,2019_jun_13_0953,012,256,20,5,alba,Experiment_EEG_version,20,
Nonliving_Things,../experiment_stimuli/bw_bc_bl/Nonliving_Things/Kitchen_Uten/cup_6.jpg,Kitchen_Uten,0,cup,0,75,75,22,360.572084079,nV_V,1,360.57690292,361.834727542,1,1,0.842077180743,362.697356383,2,0,0.371023408137,5,8.0,32,bw,99.7860402797,2019_jun_13_0953,012,256,20,5,alba,Experiment_EEG_version,20,
Living_Things,../experiment_stimuli/bw_bc_bl/Living_Things/Insects/ladybird_14.jpg,Insects,0,ladybird,0,76,76,45,364.80127383,V_nV,1,364.807476802,366.053897399,0,2,0.190632818732,366.265101159,1,1,0.270804088097,5,6.5,32,bw,99.7860402797,2019_jun_13_0953,012,256,20,5,alba,Experiment_EEG_version,20,
Nonliving_Things,../experiment_stimuli/bw_bc_bl/Nonliving_Things/Vehicles/train_8.jpg,Vehicles,0,train,0,77,77,87,368.268835843,nV_V,1,368.273709152,369.531462531,1,1,0.180608375464,369.732639638,1,1,2.05468593491,5,6.0,32,bw,99.7860402797,2019_jun_13_0953,012,256,20,5,alba,Experiment_EEG_version,20,
Living_Things,../experiment_stimuli/bw_bc_bl/Living_Things/Birds/magpie_26.jpg,Birds,0,magpie,0,78,78,51,373.520270604,nV_V,2,373.525151775,374.812943786,1,2,0.290859014727,375.12435127,1,1,0.120481718332,5,7.0,32,bw,99.7860402797,2019_jun_13_0953,012,256,20,5,alba,Experiment_EEG_version,20,
Nonliving_Things,../experiment_stimuli/bw_bc_bl/Nonliving_Things/Vehicles/van_2.jpg,Vehicles,0,van,0,79,79,91,376.977749264,V_nV,2,376.982620074,378.300529399,1,2,1.05251573818,379.373597092,3,0,0.17044332251,5,6.0,32,bw,99.7860402797,2019_jun_13_0953,012,256,20,5,alba,Experiment_EEG_version,20,
Living_Things,../experiment_stimuli/bw_bc_bl/Living_Things/Marine_creatures/dolphin_2.jpg,Marine_creatures,0,dolphin,0,80,80,23,381.277090327,V_nV,1,381.283385357,382.579831549,1,1,2.72615364566,385.326561907,3,0,0.270816012751,5,6.5,32,bw,99.7860402797,2019_jun_13_0953,012,256,20,5,alba,Experiment_EEG_version,20,
Nonliving_Things,../experiment_stimuli/bw_bc_bl/Nonliving_Things/Furniture/couch_7.jpg,Furniture,0,couch,0,81,81,19,387.330255298,nV_V,1,387.33496346,388.602923793,1,1,0.361058938317,388.984558305,1,1,0.411112571135,5,7.5,32,bw,99.7860402797,2019_jun_13_0953,012,256,20,5,alba,Experiment_EEG_version,20,
Nonliving_Things,../experiment_stimuli/bw_bc_bl/Nonliving_Things/Kitchen_Uten/saucepan_7.jpg,Kitchen_Uten,0,saucepan,0,82,82,71,391.138535532,V_nV,2,391.143306606,392.421223357,0,1,4.28955131164,396.731334367,1,1,0.962313642725,5,6.5,32,bw,99.7860402797,2019_jun_13_0953,012,256,20,5,alba,Experiment_EEG_version,20,
Nonliving_Things,../experiment_stimuli/bw_bc_bl/Nonliving_Things/Musical_Inst/saxophone_0.jpg,Musical_Inst,0,saxophone,0,83,83,72,399.426555105,nV_V,1,399.431526245,400.749338864,1,1,0.862152836751,401.632052508,3,0,0.18065656675,5,6.5,32,bw,99.7860402797,2019_jun_13_0953,012,256,20,5,alba,Experiment_EEG_version,20,
Living_Things,../experiment_stimuli/bw_bc_bl/Living_Things/Animals/armadillo_8.jpg,Animals,0,armadillo,0,84,84,1,403.54551018,nV_V,2,403.550304303,404.838218688,1,2,0.481270065997,405.340073592,3,0,0.320933692623,5,6.5,32,bw,99.7860402797,2019_jun_13_0953,012,256,20,5,alba,Experiment_EEG_version,20,
Living_Things,../experiment_stimuli/bw_bc_bl/Living_Things/Birds/toucan_17.jpg,Birds,0,toucan,0,85,85,85,407.403904756,nV_V,2,407.408677669,408.666544823,1,2,0.230729609728,408.917853093,1,1,0.120491834823,5,6.0,32,bw,99.7860402797,2019_jun_13_0953,012,256,20,5,alba,Experiment_EEG_version,20,
Living_Things,../experiment_stimuli/bw_bc_bl/Living_Things/Marine_creatures/killer-whale_26.jpg,Marine_creatures,0,killer-whale,0,86,86,43,410.771219904,nV_V,2,410.77600676,412.063937423,1,2,0.83204047149,412.916519676,3,0,0.230720459018,5,6.0,32,bw,99.7860402797,2019_jun_13_0953,012,256,20,5,alba,Experiment_EEG_version,20,
Living_Things,../experiment_stimuli/bw_bc_bl/Living_Things/Birds/goldfinch_18.jpg,Birds,0,goldfinch,0,87,87,33,414.880150223,nV_V,2,414.884998176,416.132777095,1,2,0.0501793227158,416.203514097,1,1,0.210686941631,5,7.5,32,bw,99.7860402797,2019_jun_13_0953,012,256,20,5,alba,Experiment_EEG_version,20,
Nonliving_Things,../experiment_stimuli/bw_bc_bl/Nonliving_Things/Buildings/mill_21.jpg,Buildings,0,mill,0,88,88,53,418.147252151,V_nV,2,418.152078086,419.429942213,1,2,1.56363230199,421.014154179,2,0,0.270810151473,5,6.0,32,bw,99.7860402797,2019_jun_13_0953,012,256,20,5,alba,Experiment_EEG_version,20,
Living_Things,../experiment_stimuli/bw_bc_bl/Living_Things/Animals/giraffe_0.jpg,Animals,0,giraffe,0,89,89,32,423.017871332,nV_V,2,423.022856344,424.29051255,0,1,0.200661246665,424.512280487,1,1,0.230720819905,5,6.0,32,bw,99.7860402797,2019_jun_13_0953,012,256,20,5,alba,Experiment_EEG_version,20,
Nonliving_Things,../experiment_stimuli/bw_bc_bl/Nonliving_Things/Furniture/sofa_21.jpg,Furniture,0,sofa,0,90,90,78,426.475362203,V_nV,2,426.480103245,427.778098358,1,2,0.761889223941,428.560535084,2,0,0.491297655739,5,6.0,32,bw,99.7860402797,2019_jun_13_0953,012,256,20,5,alba,Experiment_EEG_version,20,
Living_Things,../experiment_stimuli/bw_bc_bl/Living_Things/Birds/partridge_25.jpg,Birds,0,partridge,0,91,91,59,430.784733847,V_nV,1,430.789630785,432.077440029,1,1,1.00240450865,433.100398473,3,0,0.441187824123,5,7.0,32,bw,99.7860402797,2019_jun_13_0953,012,256,20,5,alba,Experiment_EEG_version,20,
Living_Things,../experiment_stimuli/bw_bc_bl/Living_Things/Animals/lioness_11.jpg,Animals,0,lioness,0,92,92,48,435.274488423,V_nV,1,435.279381522,436.54715767,1,1,1.21285743453,437.780585156,3,0,0.270821767859,5,6.0,32,bw,99.7860402797,2019_jun_13_0953,012,256,20,5,alba,Experiment_EEG_version,20,
Nonliving_Things,../experiment_stimuli/bw_bc_bl/Nonliving_Things/Buildings/granary_20.jpg,Buildings,0,granary,0,93,93,35,439.784294967,V_nV,2,439.789233942,441.036918761,1,2,0.792027852498,441.84950486,2,0,0.481264980044,5,6.0,32,bw,99.7860402797,2019_jun_13_0953,012,256,20,5,alba,Experiment_EEG_version,20,
Nonliving_Things,../experiment_stimuli/bw_bc_bl/Nonliving_Things/Vehicles/car_16.jpg,Vehicles,0,car,0,94,94,11,444.063635989,V_nV,2,444.068448736,445.306204644,1,2,1.38323524268,446.709981788,1,1,0.210729786661,5,6.0,32,bw,99.7860402797,2019_jun_13_0953,012,256,20,5,alba,Experiment_EEG_version,20,
Living_Things,../experiment_stimuli/bw_bc_bl/Living_Things/Marine_creatures/sperm-whale_18.jpg,Marine_creatures,0,sperm-whale,0,95,95,80,448.653601584,nV_V,2,448.658441598,449.916221739,1,2,0.741838556249,450.678610778,3,0,0.280823263805,5,6.0,32,bw,99.7860402797,2019_jun_13_0953,012,256,20,5,alba,Experiment_EEG_version,20,
