category,probe_path,subcategory,fixation_duration,label,trials.thisRepN,trials.thisTrialN,trials.thisN,trials.thisIndex,image_onset_time,response_window,correctAns,probe_onset,discrim_resptime,response.corr,response.keys,response.rt,visible_resptime,visible.keys,visible.corr,visible.rt,probeFrames,jitter2,n_square,experiment_color,frameRate,date,session,image_size,premask_dur,probeFrames,participant,expName,postmask_dur,
Living_Things,../experiment_stimuli/bw_bc_bl/Living_Things/Animals/elephant_23.jpg,Animals,0,elephant,0,0,0,27,3.71542962035,V_nV,1,3.73590894742,4.99811798334,0,2,1.45339099737,6.48236811347,2,0,0.200652994215,5,7.0,32,bw,99.7819531893,2019_jun_06_1601,014,256,20,5,maria,Experiment_EEG_version,20,
Nonliving_Things,../experiment_stimuli/bw_bc_bl/Nonliving_Things/Buildings/house_3.jpg,Buildings,0,house,0,1,1,41,8.41564118583,V_nV,2,8.42041230947,9.67828648631,1,2,1.31309195375,11.0119469953,3,0,0.110461406875,5,6.0,32,bw,99.7819531893,2019_jun_06_1601,014,256,20,5,maria,Experiment_EEG_version,20,
Nonliving_Things,../experiment_stimuli/bw_bc_bl/Nonliving_Things/Furniture/wardrobe_18.jpg,Furniture,0,wardrobe,0,2,2,93,12.8552962798,V_nV,2,12.8602486639,14.0978968749,1,2,0.441189358477,14.5596439801,3,0,0.120482578874,5,6.0,32,bw,99.7819531893,2019_jun_06_1601,014,256,20,5,maria,Experiment_EEG_version,20,
Nonliving_Things,../experiment_stimuli/bw_bc_bl/Nonliving_Things/Furniture/bookcase_15.jpg,Furniture,0,bookcase,0,3,3,8,16.4130274369,V_nV,2,16.4189118831,17.6456066752,1,2,0.852087206673,18.5182469185,2,0,0.351001634728,5,6.0,32,bw,99.7819531893,2019_jun_06_1601,014,256,20,5,maria,Experiment_EEG_version,20,
Living_Things,../experiment_stimuli/bw_bc_bl/Living_Things/Animals/armadillo_11.jpg,Animals,0,armadillo,0,4,4,1,20.6021424686,nV_V,2,20.6069918885,21.834723196,0,1,0.521358905826,22.376639965,2,0,0.0503335422836,5,6.5,32,bw,99.7819531893,2019_jun_06_1601,014,256,20,5,maria,Experiment_EEG_version,20,
Nonliving_Things,../experiment_stimuli/bw_bc_bl/Nonliving_Things/Kitchen_Uten/frying-pan_1.jpg,Kitchen_Uten,0,frying-pan,0,5,5,31,24.1598711256,nV_V,1,24.1647082856,25.3924431987,1,1,0.581509761978,25.9945005989,2,0,0.0603689476848,5,6.5,32,bw,99.7819531893,2019_jun_06_1601,014,256,20,5,maria,Experiment_EEG_version,20,
Nonliving_Things,../experiment_stimuli/bw_bc_bl/Nonliving_Things/Furniture/couch_2.jpg,Furniture,0,couch,0,6,6,19,27.7877535294,V_nV,2,27.7926396555,29.0203323131,1,2,0.601533415262,29.6424150621,1,1,0.0403035804629,5,6.5,32,bw,99.7819531893,2019_jun_06_1601,014,256,20,5,maria,Experiment_EEG_version,20,
Living_Things,../experiment_stimuli/bw_bc_bl/Living_Things/Birds/raven_11.jpg,Birds,0,raven,0,7,7,67,31.4156864895,V_nV,1,31.4215527591,32.678280524,0,2,1.00240641832,33.7012604782,2,0,0.150557114743,5,7.0,32,bw,99.7819531893,2019_jun_06_1601,014,256,20,5,maria,Experiment_EEG_version,20,
Living_Things,../experiment_stimuli/bw_bc_bl/Living_Things/Marine_creatures/sperm-whale_11.jpg,Marine_creatures,0,sperm-whale,0,8,8,80,35.5846953131,nV_V,2,35.5900691873,36.8373191031,0,1,0.621596616693,37.4794752523,2,0,0.0904368176125,5,6.0,32,bw,99.7819531893,2019_jun_06_1601,014,256,20,5,maria,Experiment_EEG_version,20,
Living_Things,../experiment_stimuli/bw_bc_bl/Living_Things/Insects/scorpion_9.jpg,Insects,0,scorpion,0,9,9,73,39.3027780494,V_nV,1,39.3077506665,40.5453802082,0,2,0.701751375105,41.2677041721,1,1,0.0503383730538,5,6.0,32,bw,99.7819531893,2019_jun_06_1601,014,256,20,5,maria,Experiment_EEG_version,20,
Nonliving_Things,../experiment_stimuli/bw_bc_bl/Nonliving_Things/Musical_Inst/drum_1.jpg,Musical_Inst,0,drum,0,10,10,25,43.0509615801,V_nV,2,43.0558499503,44.3035485437,1,2,0.912207345478,45.2363222148,3,0,0.0703843189403,5,6.5,32,bw,99.7819531893,2019_jun_06_1601,014,256,20,5,maria,Experiment_EEG_version,20,
Living_Things,../experiment_stimuli/bw_bc_bl/Living_Things/Animals/horse_0.jpg,Animals,0,horse,0,11,11,40,47.0395976561,nV_V,2,47.0445637582,48.272175842,0,1,0.63144233264,48.9241810008,2,0,0.100442587864,5,6.0,32,bw,99.7819531893,2019_jun_06_1601,014,256,20,5,maria,Experiment_EEG_version,20,
Nonliving_Things,../experiment_stimuli/bw_bc_bl/Nonliving_Things/Furniture/lectern_13.jpg,Furniture,0,lectern,0,12,12,47,50.7576773139,V_nV,2,50.7625025678,51.99026012,1,2,0.631591011304,52.642417314,1,1,0.0803934424184,5,6.0,32,bw,99.7819531893,2019_jun_06_1601,014,256,20,5,maria,Experiment_EEG_version,20,
Nonliving_Things,../experiment_stimuli/bw_bc_bl/Nonliving_Things/Vehicles/van_8.jpg,Vehicles,0,van,0,13,13,91,54.4557140325,nV_V,1,54.4611604814,55.7183622392,1,1,0.621580240782,56.3604915654,3,0,0.12053792458,5,6.0,32,bw,99.7819531893,2019_jun_06_1601,014,256,20,5,maria,Experiment_EEG_version,20,
Living_Things,../experiment_stimuli/bw_bc_bl/Living_Things/Animals/cat_23.jpg,Animals,0,cat,0,14,14,13,58.2138907663,V_nV,1,58.2194052553,59.4564955039,0,2,0.852092307992,60.3291674722,1,1,0.0902685150504,5,6.0,32,bw,99.7819531893,2019_jun_06_1601,014,256,20,5,maria,Experiment_EEG_version,20,
Nonliving_Things,../experiment_stimuli/bw_bc_bl/Nonliving_Things/Kitchen_Uten/cup_19.jpg,Kitchen_Uten,0,cup,0,15,15,22,62.1524420255,nV_V,1,62.1579498192,63.4050730108,1,1,0.571519544348,63.9971831436,3,0,0.100441414397,5,7.0,32,bw,99.7819531893,2019_jun_06_1601,014,256,20,5,maria,Experiment_EEG_version,20,
Nonliving_Things,../experiment_stimuli/bw_bc_bl/Nonliving_Things/Furniture/bed_3.jpg,Furniture,0,bed,0,16,16,5,65.8304422647,V_nV,2,65.8352954169,67.0630324916,1,2,0.651644013356,67.7352114967,2,0,0.631592555903,5,6.5,32,bw,99.7819531893,2019_jun_06_1601,014,256,20,5,maria,Experiment_EEG_version,20,
Living_Things,../experiment_stimuli/bw_bc_bl/Living_Things/Animals/cheetah_3.jpg,Animals,0,cheetah,0,17,17,16,70.0997243212,nV_V,2,70.1046976224,71.3323033941,1,2,0.60153861437,71.9543929361,1,1,0.0503364144824,5,6.5,32,bw,99.7819531893,2019_jun_06_1601,014,256,20,5,maria,Experiment_EEG_version,20,
Nonliving_Things,../experiment_stimuli/bw_bc_bl/Nonliving_Things/Buildings/cathedral_3.jpg,Buildings,0,cathedral,0,18,18,14,73.7376282169,V_nV,2,73.7424569079,74.9802294513,0,1,0.711770915892,75.7125691399,2,0,0.110453519505,5,8.0,32,bw,99.7819531893,2019_jun_06_1601,014,256,20,5,maria,Experiment_EEG_version,20,
Nonliving_Things,../experiment_stimuli/bw_bc_bl/Nonliving_Things/Furniture/sofa_23.jpg,Furniture,0,sofa,0,19,19,78,77.5559314429,V_nV,2,77.5621976657,78.7885063207,1,2,0.751860533375,79.5609299913,1,1,0.0703794658184,5,8.0,32,bw,99.7819531893,2019_jun_06_1601,014,256,20,5,maria,Experiment_EEG_version,20,
Nonliving_Things,../experiment_stimuli/bw_bc_bl/Nonliving_Things/Furniture/Chest-of-drawers_20.jpg,Furniture,0,Chest-of-drawers,0,20,20,0,81.3642075458,nV_V,1,81.3690352398,82.6068106857,1,1,0.872126303148,83.4994763299,3,0,0.130559596233,5,7.0,32,bw,99.7819531893,2019_jun_06_1601,014,256,20,5,maria,Experiment_EEG_version,20,
Living_Things,../experiment_stimuli/bw_bc_bl/Living_Things/Animals/lioness_24.jpg,Animals,0,lioness,0,21,21,48,85.3629031465,V_nV,1,85.3678428656,86.5954838172,0,2,0.832048550248,87.4480799604,1,1,0.0904218363576,5,6.0,32,bw,99.7819531893,2019_jun_06_1601,014,256,20,5,maria,Experiment_EEG_version,20,
Living_Things,../experiment_stimuli/bw_bc_bl/Living_Things/Animals/tapir_19.jpg,Animals,0,tapir,0,22,22,82,89.2713955431,V_nV,1,89.2770802816,90.5140090706,0,2,0.661668648012,91.1962109772,3,0,0.190649472643,5,6.5,32,bw,99.7819531893,2019_jun_06_1601,014,256,20,5,maria,Experiment_EEG_version,20,
Nonliving_Things,../experiment_stimuli/bw_bc_bl/Nonliving_Things/Tools/hammer_3.jpg,Tools,0,hammer,0,23,23,37,93.119762267,nV_V,1,93.1247037644,94.3523434307,0,2,0.781929354183,95.1548395241,2,0,0.21068227198,5,6.0,32,bw,99.7819531893,2019_jun_06_1601,014,256,20,5,maria,Experiment_EEG_version,20,
Nonliving_Things,../experiment_stimuli/bw_bc_bl/Nonliving_Things/Buildings/mill_6.jpg,Buildings,0,mill,0,24,24,53,97.0984129147,nV_V,1,97.1034556921,98.3309863,0,2,0.46122745797,98.8128031287,1,1,0.120502070989,5,6.0,32,bw,99.7819531893,2019_jun_06_1601,014,256,20,5,maria,Experiment_EEG_version,20,
Living_Things,../experiment_stimuli/bw_bc_bl/Living_Things/Birds/barn-owl_8.jpg,Birds,0,barn-owl,0,25,25,4,100.666167763,V_nV,1,100.671853321,101.908767869,1,1,0.891946522519,102.821503135,1,1,0.250766965095,5,7.5,32,bw,99.7819531893,2019_jun_06_1601,014,256,20,5,maria,Experiment_EEG_version,20,
Living_Things,../experiment_stimuli/bw_bc_bl/Living_Things/Birds/goose_1.jpg,Birds,0,goose,0,26,26,34,104.805162967,nV_V,2,104.810000086,106.067815685,1,2,0.471275265794,106.569674129,1,1,0.110457568429,5,6.0,32,bw,99.7819531893,2019_jun_06_1601,014,256,20,5,maria,Experiment_EEG_version,20,
Living_Things,../experiment_stimuli/bw_bc_bl/Living_Things/Marine_creatures/killer-whale_2.jpg,Marine_creatures,0,killer-whale,0,27,27,43,108.413005064,nV_V,2,108.417845578,109.705713814,1,2,0.992377877701,110.718646893,1,1,0.0902638612315,5,7.0,32,bw,99.7819531893,2019_jun_06_1601,014,256,20,5,maria,Experiment_EEG_version,20,
Living_Things,../experiment_stimuli/bw_bc_bl/Living_Things/Birds/ostrich_1.jpg,Birds,0,ostrich,0,28,28,56,112.541983953,nV_V,2,112.546903278,113.854733356,1,2,0.771985259838,114.647285494,1,1,0.0803931644186,5,6.0,32,bw,99.7819531893,2019_jun_06_1601,014,256,20,5,maria,Experiment_EEG_version,20,
Nonliving_Things,../experiment_stimuli/bw_bc_bl/Nonliving_Things/Vehicles/motorbike_22.jpg,Vehicles,0,motorbike,0,29,29,54,116.460495658,nV_V,1,116.467149849,117.803314502,1,1,0.561452150811,118.385315546,3,0,0.150596865918,5,6.5,32,bw,99.7819531893,2019_jun_06_1601,014,256,20,5,maria,Experiment_EEG_version,20,
Living_Things,../experiment_stimuli/bw_bc_bl/Living_Things/Insects/dragonfly_18.jpg,Insects,0,dragonfly,0,30,30,24,120.268796636,V_nV,1,120.273642473,121.581541351,1,1,0.661666249856,122.263738171,3,0,0.120538228191,5,6.5,32,bw,99.7819531893,2019_jun_06_1601,014,256,20,5,maria,Experiment_EEG_version,20,
Living_Things,../experiment_stimuli/bw_bc_bl/Living_Things/Marine_creatures/pomfret_26.jpg,Marine_creatures,0,pomfret,0,31,31,65,124.117138864,nV_V,2,124.122063342,125.399829693,0,1,0.731833883561,126.15222891,3,0,0.310891765635,5,6.0,32,bw,99.7819531893,2019_jun_06_1601,014,256,20,5,maria,Experiment_EEG_version,20,
Living_Things,../experiment_stimuli/bw_bc_bl/Living_Things/Animals/hippopotamus_14.jpg,Animals,0,hippopotamus,0,32,32,39,128.196015813,nV_V,2,128.201810832,129.458662226,0,1,1.64379565371,131.122995304,3,0,0.290871172678,5,6.5,32,bw,99.7819531893,2019_jun_06_1601,014,256,20,5,maria,Experiment_EEG_version,20,
Nonliving_Things,../experiment_stimuli/bw_bc_bl/Nonliving_Things/Vehicles/train_16.jpg,Vehicles,0,train,0,33,33,87,133.146772444,nV_V,1,133.151703227,134.379359548,0,2,0.561455429066,134.961376859,1,1,0.0102394623682,5,6.0,32,bw,99.7819531893,2019_jun_06_1601,014,256,20,5,maria,Experiment_EEG_version,20,
Living_Things,../experiment_stimuli/bw_bc_bl/Living_Things/Marine_creatures/narwhal_18.jpg,Marine_creatures,0,narwhal,0,34,34,55,136.704503939,V_nV,1,136.709330179,137.957128327,1,1,0.892186180688,138.869875744,2,0,0.170606218278,5,7.5,32,bw,99.7819531893,2019_jun_06_1601,014,256,20,5,maria,Experiment_EEG_version,20,
Living_Things,../experiment_stimuli/bw_bc_bl/Living_Things/Birds/goldfinch_8.jpg,Birds,0,goldfinch,0,35,35,33,140.773346333,V_nV,1,140.780312328,142.015951876,0,2,0.631597153842,142.668100671,1,1,0.100439102855,5,6.5,32,bw,99.7819531893,2019_jun_06_1601,014,256,20,5,maria,Experiment_EEG_version,20,
Nonliving_Things,../experiment_stimuli/bw_bc_bl/Nonliving_Things/Furniture/bedside-table_11.jpg,Furniture,0,bedside-table,0,36,36,6,144.50146832,V_nV,2,144.506389547,145.774120526,1,2,0.641626900993,146.436290434,3,0,0.130501917098,5,6.5,32,bw,99.7819531893,2019_jun_06_1601,014,256,20,5,maria,Experiment_EEG_version,20,
Living_Things,../experiment_stimuli/bw_bc_bl/Living_Things/Animals/turtle_23.jpg,Animals,0,turtle,0,37,37,90,148.299712473,V_nV,1,148.304631338,149.55233439,0,2,0.671693210956,150.244595653,1,1,0.14052563766,5,6.0,32,bw,99.7819531893,2019_jun_06_1601,014,256,20,5,maria,Experiment_EEG_version,20,
Nonliving_Things,../experiment_stimuli/bw_bc_bl/Nonliving_Things/Vehicles/boat_25.jpg,Vehicles,0,boat,0,38,38,7,152.118007289,nV_V,1,152.123864999,153.390685145,1,1,0.601541159675,154.012794269,3,0,0.100446633063,5,7.0,32,bw,99.7819531893,2019_jun_06_1601,014,256,20,5,maria,Experiment_EEG_version,20,
Living_Things,../experiment_stimuli/bw_bc_bl/Living_Things/Insects/butterfly_14.jpg,Insects,0,butterfly,0,39,39,10,155.846179802,V_nV,1,155.853101026,157.098739386,1,1,0.641626164317,157.760912323,1,1,0.180616277736,5,6.0,32,bw,99.7819531893,2019_jun_06_1601,014,256,20,5,maria,Experiment_EEG_version,20,
Living_Things,../experiment_stimuli/bw_bc_bl/Living_Things/Birds/toucan_24.jpg,Birds,0,toucan,0,40,40,85,159.674434795,nV_V,2,159.679342966,160.937080546,1,2,0.751862758305,161.709505751,1,1,0.110470026731,5,6.0,32,bw,99.7819531893,2019_jun_06_1601,014,256,20,5,maria,Experiment_EEG_version,20,
Living_Things,../experiment_stimuli/bw_bc_bl/Living_Things/Birds/pelican_4.jpg,Birds,0,pelican,0,41,41,60,163.552892024,nV_V,2,163.557942219,164.825530798,1,2,0.541404253803,165.387499832,1,1,0.100436881185,5,6.0,32,bw,99.7819531893,2019_jun_06_1601,014,256,20,5,maria,Experiment_EEG_version,20,
Nonliving_Things,../experiment_stimuli/bw_bc_bl/Nonliving_Things/Kitchen_Uten/coking-pot_24.jpg,Kitchen_Uten,0,coking-pot,0,42,42,18,167.220850275,V_nV,2,167.225643087,168.513551021,1,2,2.27518758131,170.809303097,3,0,0.511334564071,5,6.0,32,bw,99.7819531893,2019_jun_06_1601,014,256,20,5,maria,Experiment_EEG_version,20,
Living_Things,../experiment_stimuli/bw_bc_bl/Living_Things/Animals/giraffe_25.jpg,Animals,0,giraffe,0,43,43,32,173.053521088,V_nV,1,173.060543913,174.326190027,0,2,0.691733315121,175.03849586,1,1,0.0904226526618,5,7.0,32,bw,99.7819531893,2019_jun_06_1601,014,256,20,5,maria,Experiment_EEG_version,20,
Living_Things,../experiment_stimuli/bw_bc_bl/Living_Things/Birds/hummingbird_11.jpg,Birds,0,hummingbird,0,44,44,42,176.861801255,nV_V,2,176.866734519,178.144489242,0,1,0.801963022444,178.967032589,2,0,0.130520532839,5,7.0,32,bw,99.7819531893,2019_jun_06_1601,014,256,20,5,maria,Experiment_EEG_version,20,
Living_Things,../experiment_stimuli/bw_bc_bl/Living_Things/Birds/sparrow_7.jpg,Birds,0,sparrow,0,45,45,79,180.830426501,V_nV,1,180.836339462,182.103092289,0,2,2.13488195883,184.258547078,2,0,0.230721695814,5,6.0,32,bw,99.7819531893,2019_jun_06_1601,014,256,20,5,maria,Experiment_EEG_version,20,
Living_Things,../experiment_stimuli/bw_bc_bl/Living_Things/Animals/tiger_24.jpg,Animals,0,tiger,0,46,46,84,186.222158411,nV_V,2,186.22710401,187.484794693,0,1,0.671690763906,188.177055365,3,0,0.41096081771,5,8.0,32,bw,99.7819531893,2019_jun_06_1601,014,256,20,5,maria,Experiment_EEG_version,20,
Nonliving_Things,../experiment_stimuli/bw_bc_bl/Nonliving_Things/Kitchen_Uten/small-saucepan_18.jpg,Kitchen_Uten,0,small-saucepan,0,47,47,77,190.321058618,V_nV,2,190.325939451,191.553636191,1,2,0.651646506041,192.225830369,3,0,0.190480174497,5,6.5,32,bw,99.7819531893,2019_jun_06_1601,014,256,20,5,maria,Experiment_EEG_version,20,
Living_Things,../experiment_stimuli/bw_bc_bl/Living_Things/Birds/magpie_8.jpg,Birds,0,magpie,0,48,48,51,194.149376013,nV_V,2,194.154313006,195.381965134,0,1,0.75171050895,196.154241025,1,1,0.190637871623,5,6.5,32,bw,99.7819531893,2019_jun_06_1601,014,256,20,5,maria,Experiment_EEG_version,20,
Nonliving_Things,../experiment_stimuli/bw_bc_bl/Nonliving_Things/Musical_Inst/guitar_22.jpg,Musical_Inst,0,guitar,0,49,49,36,198.077921299,V_nV,2,198.082833014,199.330544081,1,2,0.92222727323,200.27331959,3,0,0.0904083033092,5,6.5,32,bw,99.7819531893,2019_jun_06_1601,014,256,20,5,maria,Experiment_EEG_version,20,
Living_Things,../experiment_stimuli/bw_bc_bl/Living_Things/Marine_creatures/shark_26.jpg,Marine_creatures,0,shark,0,50,50,75,202.096659906,V_nV,1,202.101522461,203.329235058,0,2,0.661666610744,204.011473344,1,1,0.100443730596,5,7.0,32,bw,99.7819531893,2019_jun_06_1601,014,256,20,5,maria,Experiment_EEG_version,20,
Nonliving_Things,../experiment_stimuli/bw_bc_bl/Nonliving_Things/Musical_Inst/piano__7.jpg,Musical_Inst,0,piano,0,51,51,62,205.844808652,V_nV,2,205.849668199,207.107460805,0,1,1.02245725133,208.150473315,1,1,1.06237864215,5,7.0,32,bw,99.7819531893,2019_jun_06_1601,014,256,20,5,maria,Experiment_EEG_version,20,
Living_Things,../experiment_stimuli/bw_bc_bl/Living_Things/Marine_creatures/manatee_8.jpg,Marine_creatures,0,manatee,0,52,52,52,210.945893484,V_nV,1,210.950735065,212.218561975,1,1,0.771916046273,213.011063911,2,0,0.290862845257,5,6.5,32,bw,99.7819531893,2019_jun_06_1601,014,256,20,5,maria,Experiment_EEG_version,20,
Nonliving_Things,../experiment_stimuli/bw_bc_bl/Nonliving_Things/Tools/axe_3.jpg,Tools,0,axe,0,53,53,3,215.03478186,nV_V,1,215.03978897,216.29743439,1,1,0.801967000123,217.119946694,1,1,0.200654461049,5,6.0,32,bw,99.7819531893,2019_jun_06_1601,014,256,20,5,maria,Experiment_EEG_version,20,
Nonliving_Things,../experiment_stimuli/bw_bc_bl/Nonliving_Things/Furniture/armchair_16.jpg,Furniture,0,armchair,0,54,54,2,219.053515862,V_nV,2,219.060643197,220.336205492,1,2,0.511338428594,220.868113619,3,0,0.100453324616,5,8.0,32,bw,99.7819531893,2019_jun_06_1601,014,256,20,5,maria,Experiment_EEG_version,20,
Nonliving_Things,../experiment_stimuli/bw_bc_bl/Nonliving_Things/Kitchen_Uten/teapot_16.jpg,Kitchen_Uten,0,teapot,0,55,55,83,222.70145131,V_nV,2,222.707386951,223.964093021,1,2,0.621583970264,224.606253959,3,0,0.33094113972,5,6.0,32,bw,99.7819531893,2019_jun_06_1601,014,256,20,5,maria,Experiment_EEG_version,20,
Living_Things,../experiment_stimuli/bw_bc_bl/Living_Things/Animals/lynx_12.jpg,Animals,0,lynx,0,56,56,50,226.670077966,nV_V,2,226.674986106,227.902658753,1,2,1.4634089442,229.38660808,3,0,0.100439208094,5,6.0,32,bw,99.7819531893,2019_jun_06_1601,014,256,20,5,maria,Experiment_EEG_version,20,
Nonliving_Things,../experiment_stimuli/bw_bc_bl/Nonliving_Things/Vehicles/car_10.jpg,Vehicles,0,car,0,57,57,11,231.219961448,nV_V,1,231.224845483,232.452544517,0,2,0.972341724671,233.445457116,2,0,0.200651795603,5,6.0,32,bw,99.7819531893,2019_jun_06_1601,014,256,20,5,maria,Experiment_EEG_version,20,
Nonliving_Things,../experiment_stimuli/bw_bc_bl/Nonliving_Things/Buildings/castle_17.jpg,Buildings,0,castle,0,58,58,12,235.379004425,V_nV,2,235.38383421,236.611577062,0,1,0.942292508669,237.574436055,1,1,0.290853601415,5,7.0,32,bw,99.7819531893,2019_jun_06_1601,014,256,20,5,maria,Experiment_EEG_version,20,
Living_Things,../experiment_stimuli/bw_bc_bl/Living_Things/Birds/partridge_5.jpg,Birds,0,partridge,0,59,59,59,239.598177072,nV_V,2,239.603059765,240.85080323,1,2,1.18280741759,242.054165447,2,0,0.210670701228,5,6.0,32,bw,99.7819531893,2019_jun_06_1601,014,256,20,5,maria,Experiment_EEG_version,20,
Nonliving_Things,../experiment_stimuli/bw_bc_bl/Nonliving_Things/Musical_Inst/saxophone_22.jpg,Musical_Inst,0,saxophone,0,60,60,72,243.997745683,V_nV,2,244.002628512,245.250367022,0,1,1.30307964236,246.574026445,2,0,0.0904106153175,5,6.5,32,bw,99.7819531893,2019_jun_06_1601,014,256,20,5,maria,Experiment_EEG_version,20,
Nonliving_Things,../experiment_stimuli/bw_bc_bl/Nonliving_Things/Musical_Inst/violin_6.jpg,Musical_Inst,0,violin,0,61,61,92,248.397304581,V_nV,2,248.402127257,249.629890985,0,1,0.902187432628,250.552637101,1,1,0.260780261364,5,8.0,32,bw,99.7819531893,2019_jun_06_1601,014,256,20,5,maria,Experiment_EEG_version,20,
Living_Things,../experiment_stimuli/bw_bc_bl/Living_Things/Marine_creatures/crab_6.jpg,Marine_creatures,0,crab,0,62,62,21,252.546324379,nV_V,2,252.552402371,253.788928546,1,2,0.601542933844,254.411037515,1,1,0.0803939951584,5,6.5,32,bw,99.7819531893,2019_jun_06_1601,014,256,20,5,maria,Experiment_EEG_version,20,
Nonliving_Things,../experiment_stimuli/bw_bc_bl/Nonliving_Things/Furniture/lamp_22.jpg,Furniture,0,lamp,0,63,63,46,256.224321148,V_nV,2,256.229128564,257.486962997,0,1,1.31307779253,258.820588822,1,1,0.20065791253,5,6.5,32,bw,99.7819531893,2019_jun_06_1601,014,256,20,5,maria,Experiment_EEG_version,20,
Living_Things,../experiment_stimuli/bw_bc_bl/Living_Things/Birds/penguin_0.jpg,Birds,0,penguin,0,64,64,61,260.754162875,nV_V,2,260.759022445,262.026838705,1,2,0.521393777337,262.568786695,1,1,0.120485853404,5,6.0,32,bw,99.7819531893,2019_jun_06_1601,014,256,20,5,maria,Experiment_EEG_version,20,
Nonliving_Things,../experiment_stimuli/bw_bc_bl/Nonliving_Things/Buildings/factory_8.jpg,Buildings,0,factory,0,65,65,28,264.42215254,nV_V,1,264.427011327,265.724872556,1,1,1.05251794914,266.807990815,3,0,0.150398229714,5,6.0,32,bw,99.7819531893,2019_jun_06_1601,014,256,20,5,maria,Experiment_EEG_version,20,
Nonliving_Things,../experiment_stimuli/bw_bc_bl/Nonliving_Things/Kitchen_Uten/pot_23.jpg,Kitchen_Uten,0,pot,0,66,66,66,268.691423378,nV_V,1,268.696181957,269.974111253,0,2,0.641621382441,270.636283446,1,1,0.0902656321414,5,6.0,32,bw,99.7819531893,2019_jun_06_1601,014,256,20,5,maria,Experiment_EEG_version,20,
Nonliving_Things,../experiment_stimuli/bw_bc_bl/Nonliving_Things/Kitchen_Uten/saucepan_14.jpg,Kitchen_Uten,0,saucepan,0,67,67,71,272.459616344,V_nV,2,272.464400223,273.762346323,1,2,0.501315978356,274.284216176,3,0,0.0904194270261,5,6.0,32,bw,99.7819531893,2019_jun_06_1601,014,256,20,5,maria,Experiment_EEG_version,20,
Living_Things,../experiment_stimuli/bw_bc_bl/Living_Things/Marine_creatures/dolphin_15.jpg,Marine_creatures,0,dolphin,0,68,68,23,276.107545965,V_nV,1,276.112296089,277.380209761,0,2,0.651643118821,278.052408206,1,1,0.0904095927253,5,6.5,32,bw,99.7819531893,2019_jun_06_1601,014,256,20,5,maria,Experiment_EEG_version,20,
Living_Things,../experiment_stimuli/bw_bc_bl/Living_Things/Birds/seagull_7.jpg,Birds,0,seagull,0,69,69,74,279.875734353,V_nV,1,279.880530269,281.168445996,1,1,1.44336278411,282.632360821,3,0,0.12048330484,5,7.5,32,bw,99.7819531893,2019_jun_06_1601,014,256,20,5,maria,Experiment_EEG_version,20,
Living_Things,../experiment_stimuli/bw_bc_bl/Living_Things/Marine_creatures/whale_3.jpg,Marine_creatures,0,whale,0,70,70,94,284.485754048,V_nV,1,284.49046327,285.748409164,0,2,0.551438023336,286.320391859,3,0,0.100439794827,5,6.0,32,bw,99.7819531893,2019_jun_06_1601,014,256,20,5,maria,Experiment_EEG_version,20,
Living_Things,../experiment_stimuli/bw_bc_bl/Living_Things/Animals/zebra_4.jpg,Animals,0,zebra,0,71,71,95,288.153752866,V_nV,1,288.158611301,289.38630888,1,1,0.681710443459,290.088570269,1,1,0.180609860457,5,6.0,32,bw,99.7819531893,2019_jun_06_1601,014,256,20,5,maria,Experiment_EEG_version,20,
Living_Things,../experiment_stimuli/bw_bc_bl/Living_Things/Insects/ladybird_11.jpg,Insects,0,ladybird,0,72,72,45,292.002094023,nV_V,2,292.006937788,293.254718805,0,1,0.932254599407,294.20753378,2,0,0.330782623496,5,7.5,32,bw,99.7819531893,2019_jun_06_1601,014,256,20,5,maria,Experiment_EEG_version,20,
Nonliving_Things,../experiment_stimuli/bw_bc_bl/Nonliving_Things/Buildings/granary_7.jpg,Buildings,0,granary,0,73,73,35,296.271378591,nV_V,1,296.276263799,297.513980392,1,1,0.781935211271,298.316480723,2,0,0.12047371408,5,7.5,32,bw,99.7819531893,2019_jun_06_1601,014,256,20,5,maria,Experiment_EEG_version,20,
Living_Things,../experiment_stimuli/bw_bc_bl/Living_Things/Birds/duck_20.jpg,Birds,0,duck,0,74,74,26,300.16984839,nV_V,2,300.174694509,301.402431445,0,1,0.64164250996,302.064632363,2,0,0.12048454117,5,8.0,32,bw,99.7819531893,2019_jun_06_1601,014,256,20,5,maria,Experiment_EEG_version,20,
Nonliving_Things,../experiment_stimuli/bw_bc_bl/Nonliving_Things/Furniture/chair_22.jpg,Furniture,0,chair,0,75,75,15,303.918002057,V_nV,2,303.922928039,305.150582021,1,2,0.601549339946,305.772704262,1,1,0.0603712592274,5,8.0,32,bw,99.7819531893,2019_jun_06_1601,014,256,20,5,maria,Experiment_EEG_version,20,
Living_Things,../experiment_stimuli/bw_bc_bl/Living_Things/Animals/rhino_5.jpg,Animals,0,rhino,0,76,76,68,307.565929881,V_nV,1,307.573600966,308.818552919,1,1,1.10262912232,309.941732044,2,0,0.511342940386,5,6.0,32,bw,99.7819531893,2019_jun_06_1601,014,256,20,5,maria,Experiment_EEG_version,20,
Nonliving_Things,../experiment_stimuli/bw_bc_bl/Nonliving_Things/Musical_Inst/tuba_14.jpg,Musical_Inst,0,tuba,0,77,77,89,312.185966256,V_nV,2,312.190923512,313.428576343,0,1,0.561453154776,314.010576328,1,1,0.180610067677,5,6.0,32,bw,99.7819531893,2019_jun_06_1601,014,256,20,5,maria,Experiment_EEG_version,20,
Nonliving_Things,../experiment_stimuli/bw_bc_bl/Nonliving_Things/Furniture/rocking-chair_18.jpg,Furniture,0,rocking-chair,0,78,78,69,315.92410381,V_nV,2,315.929160359,317.186739694,1,2,0.77189747896,317.979206089,2,0,0.180609867908,5,6.5,32,bw,99.7819531893,2019_jun_06_1601,014,256,20,5,maria,Experiment_EEG_version,20,
Living_Things,../experiment_stimuli/bw_bc_bl/Living_Things/Birds/rooster_24.jpg,Birds,0,rooster,0,79,79,70,319.902754616,nV_V,2,319.907559713,321.155373466,1,2,0.641642043833,321.81755408,1,1,0.110461647622,5,6.5,32,bw,99.7819531893,2019_jun_06_1601,014,256,20,5,maria,Experiment_EEG_version,20,
Living_Things,../experiment_stimuli/bw_bc_bl/Living_Things/Birds/kiwi_1.jpg,Birds,0,kiwi,0,80,80,44,323.660916985,V_nV,1,323.665684067,324.933583804,1,1,0.571462601889,325.525591795,1,1,0.160564715508,5,6.0,32,bw,99.7819531893,2019_jun_06_1601,014,256,20,5,maria,Experiment_EEG_version,20,
Nonliving_Things,../experiment_stimuli/bw_bc_bl/Nonliving_Things/Furniture/filling-cabinet_21.jpg,Furniture,0,filling-cabinet,0,81,81,29,327.419109523,V_nV,2,327.423879639,328.721819787,0,1,0.541424952913,329.283809942,1,1,0.170589007903,5,6.5,32,bw,99.7819531893,2019_jun_06_1601,014,256,20,5,maria,Experiment_EEG_version,20,
Living_Things,../experiment_stimuli/bw_bc_bl/Living_Things/Birds/pigeon_1.jpg,Birds,0,pigeon,0,82,82,63,331.187274095,V_nV,1,331.192027256,332.530098687,1,1,0.872374942526,333.423037997,3,0,0.110470196232,5,6.5,32,bw,99.7819531893,2019_jun_06_1601,014,256,20,5,maria,Experiment_EEG_version,20,
Nonliving_Things,../experiment_stimuli/bw_bc_bl/Nonliving_Things/Buildings/palace_20.jpg,Buildings,0,palace,0,83,83,58,335.26613627,nV_V,1,335.272517622,336.568880635,0,2,0.822022979148,337.411457654,2,0,0.280850691721,5,7.5,32,bw,99.7819531893,2019_jun_06_1601,014,256,20,5,maria,Experiment_EEG_version,20,
Living_Things,../experiment_stimuli/bw_bc_bl/Living_Things/Birds/hen_19.jpg,Birds,0,hen,0,84,84,38,339.425180796,V_nV,1,339.429910635,340.717897726,1,1,0.641615976579,341.380060359,2,0,0.130551220849,5,8.0,32,bw,99.7819531893,2019_jun_06_1601,014,256,20,5,maria,Experiment_EEG_version,20,
Nonliving_Things,../experiment_stimuli/bw_bc_bl/Nonliving_Things/Furniture/table_17.jpg,Furniture,0,table,0,85,85,81,343.243489792,V_nV,2,343.248353937,344.526179998,0,1,0.892171881162,345.438912151,3,0,0.120500518475,5,8.0,32,bw,99.7819531893,2019_jun_06_1601,014,256,20,5,maria,Experiment_EEG_version,20,
Living_Things,../experiment_stimuli/bw_bc_bl/Living_Things/Marine_creatures/lobster_9.jpg,Marine_creatures,0,lobster,0,86,86,49,347.292300416,nV_V,2,347.297206504,348.544913229,0,1,0.701748893596,349.267238944,2,0,0.140529979952,5,6.5,32,bw,99.7819531893,2019_jun_06_1601,014,256,20,5,maria,Experiment_EEG_version,20,
Nonliving_Things,../experiment_stimuli/bw_bc_bl/Nonliving_Things/Kitchen_Uten/fondue_21.jpg,Kitchen_Uten,0,fondue,0,87,87,30,351.140655659,nV_V,1,351.147206787,352.383257393,1,1,1.44336542673,353.847170454,2,0,0.431152810343,5,6.0,32,bw,99.7819531893,2019_jun_06_1601,014,256,20,5,maria,Experiment_EEG_version,20,
Living_Things,../experiment_stimuli/bw_bc_bl/Living_Things/Animals/cow_7.jpg,Animals,0,cow,0,88,88,20,356.011247732,V_nV,1,356.016079122,357.243820455,0,2,0.461253108457,357.725641702,1,1,0.0904399044812,5,7.5,32,bw,99.7819531893,2019_jun_06_1601,014,256,20,5,maria,Experiment_EEG_version,20,
Living_Things,../experiment_stimuli/bw_bc_bl/Living_Things/Birds/owl_16.jpg,Birds,0,owl,0,89,89,57,359.548927349,nV_V,2,359.553869707,360.801556988,1,2,0.531227257103,361.353322616,3,0,0.0703918375075,5,6.0,32,bw,99.7819531893,2019_jun_06_1601,014,256,20,5,maria,Experiment_EEG_version,20,
Nonliving_Things,../experiment_stimuli/bw_bc_bl/Nonliving_Things/Buildings/church_21.jpg,Buildings,0,church,0,90,90,17,363.156765833,V_nV,2,363.161634798,364.389366974,1,2,0.781925546005,365.191828955,1,1,0.0603656126186,5,6.0,32,bw,99.7819531893,2019_jun_06_1601,014,256,20,5,maria,Experiment_EEG_version,20,
Nonliving_Things,../experiment_stimuli/bw_bc_bl/Nonliving_Things/Vehicles/bus_17.jpg,Vehicles,0,bus,0,91,91,9,366.985100626,V_nV,2,366.989995248,368.247743013,0,1,0.771904693451,369.040204344,2,0,0.140578550752,5,6.5,32,bw,99.7819531893,2019_jun_06_1601,014,256,20,5,maria,Experiment_EEG_version,20,
Nonliving_Things,../experiment_stimuli/bw_bc_bl/Nonliving_Things/Musical_Inst/trumpet_20.jpg,Musical_Inst,0,trumpet,0,92,92,88,370.913644736,V_nV,2,370.918462378,372.166263168,1,2,0.571470522322,372.758304885,2,0,0.180613270495,5,7.0,32,bw,99.7819531893,2019_jun_06_1601,014,256,20,5,maria,Experiment_EEG_version,20,
Nonliving_Things,../experiment_stimuli/bw_bc_bl/Nonliving_Things/Vehicles/plane_16.jpg,Vehicles,0,plane,0,93,93,64,374.671802278,V_nV,2,374.676635889,375.914414914,0,1,1.10262296489,377.037615433,1,1,0.541394867003,5,6.5,32,bw,99.7819531893,2019_jun_06_1601,014,256,20,5,maria,Experiment_EEG_version,20,
Nonliving_Things,../experiment_stimuli/bw_bc_bl/Nonliving_Things/Vehicles/ship_14.jpg,Vehicles,0,ship,0,94,94,76,379.31189149,V_nV,2,379.31662781,380.584574128,1,2,0.57146778563,381.176577732,3,0,0.100441704504,5,6.0,32,bw,99.7819531893,2019_jun_06_1601,014,256,20,5,maria,Experiment_EEG_version,20,
Nonliving_Things,../experiment_stimuli/bw_bc_bl/Nonliving_Things/Vehicles/tractor_24.jpg,Vehicles,0,tractor,0,95,95,86,383.009937818,V_nV,2,383.014784263,384.252544499,1,2,0.531393720303,384.804486106,2,0,0.371035201475,5,6.0,32,bw,99.7819531893,2019_jun_06_1601,014,256,20,5,maria,Experiment_EEG_version,20,
