category,probe_path,subcategory,fixation_duration,label,trials.thisRepN,trials.thisTrialN,trials.thisN,trials.thisIndex,image_onset_time,response_window,correctAns,probe_onset,discrim_resptime,response.corr,response.keys,response.rt,visible_resptime,visible.keys,visible.corr,visible.rt,probeFrames,jitter2,n_square,experiment_color,frameRate,date,session,image_size,premask_dur,probeFrames,participant,expName,postmask_dur,
Nonliving_Things,../experiment_stimuli/bw_bc_bl/Nonliving_Things/Kitchen_Uten/saucepan_7.jpg,Kitchen_Uten,0,saucepan,0,0,0,71,3.71690842975,nV_V,1,3.73749583401,4.9995892141,0,2,1.48329793755,6.51373884128,2,0,0.210687016603,5,6.0,32,bw,99.779932255,2019_jun_06_1545,012,256,20,5,maria,Experiment_EEG_version,20,
Nonliving_Things,../experiment_stimuli/bw_bc_bl/Nonliving_Things/Buildings/church_2.jpg,Buildings,0,church,0,1,1,17,8.45719934627,V_nV,2,8.46205035551,9.71985086054,1,2,1.00240498269,10.7428113907,3,0,0.110309082083,5,6.0,32,bw,99.779932255,2019_jun_06_1545,012,256,20,5,maria,Experiment_EEG_version,20,
Nonliving_Things,../experiment_stimuli/bw_bc_bl/Nonliving_Things/Buildings/mill_21.jpg,Buildings,0,mill,0,2,2,53,12.5861815773,nV_V,1,12.5911109429,13.8287891047,1,1,1.83421160327,15.6835644064,2,0,0.0601967959665,5,6.0,32,bw,99.779932255,2019_jun_06_1545,012,256,20,5,maria,Experiment_EEG_version,20,
Nonliving_Things,../experiment_stimuli/bw_bc_bl/Nonliving_Things/Vehicles/plane_9.jpg,Vehicles,0,plane,0,3,3,64,17.4768064236,nV_V,1,17.4825622207,18.7093908535,1,1,0.671692350414,19.4016459286,2,0,0.0703741875477,5,7.0,32,bw,99.779932255,2019_jun_06_1545,012,256,20,5,maria,Experiment_EEG_version,20,
Living_Things,../experiment_stimuli/bw_bc_bl/Living_Things/Birds/toucan_17.jpg,Birds,0,toucan,0,4,4,85,21.2049114113,V_nV,1,21.2097311919,22.4375072322,0,2,1.30305300001,23.7611149531,3,0,0.150546648074,5,6.0,32,bw,99.779932255,2019_jun_06_1545,012,256,20,5,maria,Experiment_EEG_version,20,
Living_Things,../experiment_stimuli/bw_bc_bl/Living_Things/Birds/owl_6.jpg,Birds,0,owl,0,5,5,57,25.6445702384,nV_V,2,25.6494009434,26.8771476611,0,1,0.5814877511,27.4792045876,2,0,0.0703805452213,5,6.0,32,bw,99.779932255,2019_jun_06_1545,012,256,20,5,maria,Experiment_EEG_version,20,
Living_Things,../experiment_stimuli/bw_bc_bl/Living_Things/Animals/tiger_10.jpg,Animals,0,tiger,0,6,6,84,29.2824714952,V_nV,1,29.2874503974,30.5150576206,0,2,1.19282127032,31.728433969,1,1,0.120507300366,5,6.0,32,bw,99.779932255,2019_jun_06_1545,012,256,20,5,maria,Experiment_EEG_version,20,
Living_Things,../experiment_stimuli/bw_bc_bl/Living_Things/Birds/goldfinch_18.jpg,Birds,0,goldfinch,0,7,7,33,33.5818189071,nV_V,2,33.5877906973,34.8344442118,0,1,0.932249539997,35.7872532392,2,0,0.0904144044034,5,6.0,32,bw,99.779932255,2019_jun_06_1545,012,256,20,5,maria,Experiment_EEG_version,20,
Living_Things,../experiment_stimuli/bw_bc_bl/Living_Things/Birds/pelican_0.jpg,Birds,0,pelican,0,8,8,60,37.6105737807,nV_V,2,37.615389775,38.853184755,0,1,0.651651265565,39.5254141991,2,0,0.0703769545071,5,6.0,32,bw,99.779932255,2019_jun_06_1545,012,256,20,5,maria,Experiment_EEG_version,20,
Living_Things,../experiment_stimuli/bw_bc_bl/Living_Things/Insects/ladybird_14.jpg,Insects,0,ladybird,0,9,9,45,41.3286542613,nV_V,2,41.3340327633,42.561241372,0,1,0.962156592403,43.5439636661,2,0,0.100439971313,5,6.5,32,bw,99.779932255,2019_jun_06_1545,012,256,20,5,maria,Experiment_EEG_version,20,
Nonliving_Things,../experiment_stimuli/bw_bc_bl/Nonliving_Things/Tools/hammer_2.jpg,Tools,0,hammer,0,10,10,37,45.3774561598,nV_V,1,45.3823257214,46.610039928,1,1,1.28301797854,47.9136126274,1,1,0.200660795439,5,7.5,32,bw,99.779932255,2019_jun_06_1545,012,256,20,5,maria,Experiment_EEG_version,20,
Living_Things,../experiment_stimuli/bw_bc_bl/Living_Things/Birds/seagull_22.jpg,Birds,0,seagull,0,11,11,74,49.8471710226,V_nV,1,49.8521418162,51.0997999855,1,1,0.671710207127,51.7920607366,1,1,0.200508161914,5,7.5,32,bw,99.779932255,2019_jun_06_1545,012,256,20,5,maria,Experiment_EEG_version,20,
Nonliving_Things,../experiment_stimuli/bw_bc_bl/Nonliving_Things/Furniture/bed_21.jpg,Furniture,0,bed,0,12,12,5,53.7256089812,V_nV,2,53.7304041944,54.9882524656,1,2,0.471255765762,55.4800532572,3,0,0.090412626043,5,6.0,32,bw,99.779932255,2019_jun_06_1545,012,256,20,5,maria,Experiment_EEG_version,20,
Living_Things,../experiment_stimuli/bw_bc_bl/Living_Things/Animals/armadillo_8.jpg,Animals,0,armadillo,0,13,13,1,57.3033784265,nV_V,2,57.3083804636,58.545984217,0,1,0.751852702815,59.3184018652,2,0,0.0802380009554,5,6.0,32,bw,99.779932255,2019_jun_06_1545,012,256,20,5,maria,Experiment_EEG_version,20,
Nonliving_Things,../experiment_stimuli/bw_bc_bl/Nonliving_Things/Furniture/rocking-chair_19.jpg,Furniture,0,rocking-chair,0,14,14,69,61.1317031514,nV_V,1,61.1380345607,62.3642833563,0,2,0.751862213481,63.1367133916,1,1,0.0703714503907,5,6.0,32,bw,99.779932255,2019_jun_06_1545,012,256,20,5,maria,Experiment_EEG_version,20,
Living_Things,../experiment_stimuli/bw_bc_bl/Living_Things/Birds/partridge_25.jpg,Birds,0,partridge,0,15,15,59,64.9399943519,nV_V,2,64.9448672817,66.1825904883,0,1,0.621417468414,66.824576553,2,0,0.0703746913932,5,6.0,32,bw,99.779932255,2019_jun_06_1545,012,256,20,5,maria,Experiment_EEG_version,20,
Living_Things,../experiment_stimuli/bw_bc_bl/Living_Things/Animals/cheetah_0.jpg,Animals,0,cheetah,0,16,16,16,68.6279997444,nV_V,2,68.6329381624,69.8605830953,0,1,0.451209387742,70.332350824,1,1,0.170583744999,5,8.0,32,bw,99.779932255,2019_jun_06_1545,012,256,20,5,maria,Experiment_EEG_version,20,
Nonliving_Things,../experiment_stimuli/bw_bc_bl/Nonliving_Things/Furniture/lectern_20.jpg,Furniture,0,lectern,0,17,17,47,72.235846315,V_nV,2,72.2406547652,73.4884693306,1,2,0.511342342477,74.0203454276,3,0,0.0904155434109,5,6.0,32,bw,99.779932255,2019_jun_06_1545,012,256,20,5,maria,Experiment_EEG_version,20,
Nonliving_Things,../experiment_stimuli/bw_bc_bl/Nonliving_Things/Vehicles/motorbike_26.jpg,Vehicles,0,motorbike,0,18,18,54,75.8437019913,nV_V,1,75.8486728934,77.0762690115,0,2,0.671686516143,77.7685163831,1,1,0.090422088746,5,6.5,32,bw,99.779932255,2019_jun_06_1545,012,256,20,5,maria,Experiment_EEG_version,20,
Living_Things,../experiment_stimuli/bw_bc_bl/Living_Things/Animals/giraffe_0.jpg,Animals,0,giraffe,0,19,19,32,79.5918390788,nV_V,2,79.5968154962,80.8444581698,1,2,0.641618506983,81.5066345995,1,1,0.0703686238267,5,6.0,32,bw,99.779932255,2019_jun_06_1545,012,256,20,5,maria,Experiment_EEG_version,20,
Nonliving_Things,../experiment_stimuli/bw_bc_bl/Nonliving_Things/Buildings/palace_8.jpg,Buildings,0,palace,0,20,20,58,83.3099199883,V_nV,2,83.3148152339,84.5725638149,1,2,0.661682065111,85.2548086005,3,0,0.0904281600378,5,6.5,32,bw,99.779932255,2019_jun_06_1545,012,256,20,5,maria,Experiment_EEG_version,20,
Nonliving_Things,../experiment_stimuli/bw_bc_bl/Nonliving_Things/Furniture/couch_7.jpg,Furniture,0,couch,0,21,21,19,87.0781147024,nV_V,1,87.0829917868,88.3106942191,1,1,0.801971070934,89.1332285297,2,0,0.0904181185178,5,6.0,32,bw,99.779932255,2019_jun_06_1545,012,256,20,5,maria,Experiment_EEG_version,20,
Living_Things,../experiment_stimuli/bw_bc_bl/Living_Things/Animals/horse_16.jpg,Animals,0,horse,0,22,22,40,90.9565374171,V_nV,1,90.9615988592,92.189120302,0,2,0.58149484871,92.7912013936,1,1,0.0904251076281,5,6.5,32,bw,99.779932255,2019_jun_06_1545,012,256,20,5,maria,Experiment_EEG_version,20,
Living_Things,../experiment_stimuli/bw_bc_bl/Living_Things/Marine_creatures/lobster_23.jpg,Marine_creatures,0,lobster,0,23,23,49,94.6144893528,V_nV,1,94.620306754,95.8771366756,0,2,0.451209101826,96.3488931712,1,1,0.0403247494251,5,7.5,32,bw,99.779932255,2019_jun_06_1545,012,256,20,5,maria,Experiment_EEG_version,20,
Living_Things,../experiment_stimuli/bw_bc_bl/Living_Things/Birds/hummingbird_17.jpg,Birds,0,hummingbird,0,24,24,42,98.1221183138,V_nV,1,98.1270675361,99.4148306646,1,1,1.35318184178,100.789153982,2,0,0.100441009272,5,6.0,32,bw,99.779932255,2019_jun_06_1545,012,256,20,5,maria,Experiment_EEG_version,20,
Living_Things,../experiment_stimuli/bw_bc_bl/Living_Things/Birds/sparrow_6.jpg,Birds,0,sparrow,0,25,25,79,102.62190655,nV_V,2,102.628428577,103.904588711,1,2,0.641618311405,104.566760633,3,0,0.150558666792,5,6.5,32,bw,99.779932255,2019_jun_06_1545,012,256,20,5,maria,Experiment_EEG_version,20,
Living_Things,../experiment_stimuli/bw_bc_bl/Living_Things/Marine_creatures/dolphin_2.jpg,Marine_creatures,0,dolphin,0,26,26,23,106.450219005,nV_V,2,106.45510104,107.712865757,1,2,0.701784682926,108.445243069,1,1,0.13050416857,5,7.5,32,bw,99.779932255,2019_jun_06_1545,012,256,20,5,maria,Experiment_EEG_version,20,
Living_Things,../experiment_stimuli/bw_bc_bl/Living_Things/Animals/tapir_11.jpg,Animals,0,tapir,0,27,27,82,110.308610259,V_nV,1,110.313482677,111.591299467,1,1,1.20285328431,112.814718544,3,0,0.120484560262,5,6.0,32,bw,99.779932255,2019_jun_06_1545,012,256,20,5,maria,Experiment_EEG_version,20,
Living_Things,../experiment_stimuli/bw_bc_bl/Living_Things/Marine_creatures/shark_7.jpg,Marine_creatures,0,shark,0,28,28,75,114.668107421,nV_V,2,114.673781806,115.92070652,1,2,0.881976549514,116.823239579,3,0,0.150563832372,5,7.5,32,bw,99.779932255,2019_jun_06_1545,012,256,20,5,maria,Experiment_EEG_version,20,
Living_Things,../experiment_stimuli/bw_bc_bl/Living_Things/Marine_creatures/killer-whale_26.jpg,Marine_creatures,0,killer-whale,0,29,29,43,118.706859396,V_nV,1,118.713429358,119.939448435,1,1,0.651645231061,120.611633816,2,0,0.0904150172137,5,7.0,32,bw,99.779932255,2019_jun_06_1545,012,256,20,5,maria,Experiment_EEG_version,20,
Living_Things,../experiment_stimuli/bw_bc_bl/Living_Things/Marine_creatures/sperm-whale_18.jpg,Marine_creatures,0,sperm-whale,0,30,30,80,122.435012593,nV_V,2,122.439790025,123.667549325,1,2,0.461229796521,124.149333722,1,1,0.0601973291487,5,6.0,32,bw,99.779932255,2019_jun_06_1545,012,256,20,5,maria,Experiment_EEG_version,20,
Living_Things,../experiment_stimuli/bw_bc_bl/Living_Things/Birds/hen_14.jpg,Birds,0,hen,0,31,31,38,125.942594123,nV_V,2,125.948442185,127.205237145,1,2,1.40327656036,128.629073333,3,0,0.751852972899,5,6.0,32,bw,99.779932255,2019_jun_06_1545,012,256,20,5,maria,Experiment_EEG_version,20,
Living_Things,../experiment_stimuli/bw_bc_bl/Living_Things/Animals/zebra_9.jpg,Animals,0,zebra,0,32,32,95,131.113835333,nV_V,2,131.118783304,132.356434598,0,1,0.531462474726,132.90845765,1,1,2.435518221,5,6.0,32,bw,99.779932255,2019_jun_06_1545,012,256,20,5,maria,Experiment_EEG_version,20,
Nonliving_Things,../experiment_stimuli/bw_bc_bl/Nonliving_Things/Furniture/bedside-table_12.jpg,Furniture,0,bedside-table,0,33,33,6,137.07680154,nV_V,1,137.081702165,138.349464611,1,1,0.591524885502,138.961567348,3,0,0.100448516198,5,6.0,32,bw,99.779932255,2019_jun_06_1545,012,256,20,5,maria,Experiment_EEG_version,20,
Nonliving_Things,../experiment_stimuli/bw_bc_bl/Nonliving_Things/Musical_Inst/violin_25.jpg,Musical_Inst,0,violin,0,34,34,92,140.794882574,V_nV,2,140.800725279,142.037482266,0,1,1.05252877576,143.110572063,1,1,0.200673704967,5,6.0,32,bw,99.779932255,2019_jun_06_1545,012,256,20,5,maria,Experiment_EEG_version,20,
Living_Things,../experiment_stimuli/bw_bc_bl/Living_Things/Animals/lynx_3.jpg,Animals,0,lynx,0,35,35,50,145.044115188,nV_V,2,145.049177897,146.306759075,1,2,0.681706740521,147.009027096,1,1,0.0503352563828,5,7.0,32,bw,99.779932255,2019_jun_06_1545,012,256,20,5,maria,Experiment_EEG_version,20,
Nonliving_Things,../experiment_stimuli/bw_bc_bl/Nonliving_Things/Musical_Inst/trumpet_4.jpg,Musical_Inst,0,trumpet,0,36,36,88,148.792299256,V_nV,2,148.797343353,150.064931229,1,2,0.591516769491,150.676988614,3,0,0.120490229689,5,6.0,32,bw,99.779932255,2019_jun_06_1545,012,256,20,5,maria,Experiment_EEG_version,20,
Nonliving_Things,../experiment_stimuli/bw_bc_bl/Nonliving_Things/Musical_Inst/tuba_1.jpg,Musical_Inst,0,tuba,0,37,37,89,152.530395326,nV_V,1,152.535487306,153.783014173,1,1,0.551421719138,154.365028793,3,0,0.120529860258,5,7.0,32,bw,99.779932255,2019_jun_06_1545,012,256,20,5,maria,Experiment_EEG_version,20,
Living_Things,../experiment_stimuli/bw_bc_bl/Living_Things/Birds/ostrich_11.jpg,Birds,0,ostrich,0,38,38,56,156.218406914,nV_V,2,156.223426553,157.4509916,0,1,0.832037223037,158.303608875,2,0,0.120503115933,5,6.0,32,bw,99.779932255,2019_jun_06_1545,012,256,20,5,maria,Experiment_EEG_version,20,
Living_Things,../experiment_stimuli/bw_bc_bl/Living_Things/Birds/kiwi_24.jpg,Birds,0,kiwi,0,39,39,44,160.156974809,nV_V,2,160.163862808,161.3895508,0,1,0.892160177696,162.302274788,2,0,0.0403238963336,5,7.5,32,bw,99.779932255,2019_jun_06_1545,012,256,20,5,maria,Experiment_EEG_version,20,
Living_Things,../experiment_stimuli/bw_bc_bl/Living_Things/Birds/magpie_26.jpg,Birds,0,magpie,0,40,40,51,164.075488483,V_nV,1,164.081347384,165.308076864,1,1,1.13269123714,166.461318818,1,1,0.180606296752,5,6.0,32,bw,99.779932255,2019_jun_06_1545,012,256,20,5,maria,Experiment_EEG_version,20,
Living_Things,../experiment_stimuli/bw_bc_bl/Living_Things/Birds/goose_15.jpg,Birds,0,goose,0,41,41,34,168.374845932,V_nV,1,168.379778132,169.627455437,1,1,0.591525795404,170.239531449,3,0,0.060348181054,5,6.0,32,bw,99.779932255,2019_jun_06_1545,012,256,20,5,maria,Experiment_EEG_version,20,
Nonliving_Things,../experiment_stimuli/bw_bc_bl/Nonliving_Things/Buildings/castle_1.jpg,Buildings,0,castle,0,42,42,12,172.032787147,V_nV,2,172.037787015,173.265367581,0,1,0.611562121194,173.897492907,1,1,0.180611480959,5,6.0,32,bw,99.779932255,2019_jun_06_1545,012,256,20,5,maria,Experiment_EEG_version,20,
Nonliving_Things,../experiment_stimuli/bw_bc_bl/Nonliving_Things/Furniture/filling-cabinet_13.jpg,Furniture,0,filling-cabinet,0,43,43,29,175.811013059,V_nV,2,175.815834873,177.063622816,1,2,3.15708764689,180.2412686,3,0,0.381054309662,5,6.5,32,bw,99.779932255,2019_jun_06_1545,012,256,20,5,maria,Experiment_EEG_version,20,
Living_Things,../experiment_stimuli/bw_bc_bl/Living_Things/Birds/pigeon_10.jpg,Birds,0,pigeon,0,44,44,63,182.355225904,nV_V,2,182.360086455,183.587809052,0,1,0.832058395725,184.440415669,2,0,0.12047810154,5,6.0,32,bw,99.779932255,2019_jun_06_1545,012,256,20,5,maria,Experiment_EEG_version,20,
Living_Things,../experiment_stimuli/bw_bc_bl/Living_Things/Birds/barn-owl_26.jpg,Birds,0,barn-owl,0,45,45,4,186.293789945,V_nV,1,186.298740599,187.526370676,0,2,0.741855612025,188.288785366,1,1,0.0703740487806,5,6.0,32,bw,99.779932255,2019_jun_06_1545,012,256,20,5,maria,Experiment_EEG_version,20,
Nonliving_Things,../experiment_stimuli/bw_bc_bl/Nonliving_Things/Musical_Inst/piano__10.jpg,Musical_Inst,0,piano,0,46,46,62,190.092047676,nV_V,1,190.096932658,191.344673751,1,1,1.34314554604,192.708380405,2,0,2.50567397568,5,6.0,32,bw,99.779932255,2019_jun_06_1545,012,256,20,5,maria,Experiment_EEG_version,20,
Living_Things,../experiment_stimuli/bw_bc_bl/Living_Things/Marine_creatures/crab_26.jpg,Marine_creatures,0,crab,0,47,47,21,196.94694309,V_nV,1,196.951913026,198.189549865,1,1,0.761882682331,198.971985723,2,0,0.0102661424316,5,6.0,32,bw,99.779932255,2019_jun_06_1545,012,256,20,5,maria,Experiment_EEG_version,20,
Living_Things,../experiment_stimuli/bw_bc_bl/Living_Things/Marine_creatures/whale_11.jpg,Marine_creatures,0,whale,0,48,48,94,200.715141052,V_nV,1,200.719913484,201.947736159,0,2,0.601531622,202.56980622,1,1,0.10043494124,5,6.5,32,bw,99.779932255,2019_jun_06_1545,012,256,20,5,maria,Experiment_EEG_version,20,
Nonliving_Things,../experiment_stimuli/bw_bc_bl/Nonliving_Things/Buildings/house_5.jpg,Buildings,0,house,0,49,49,41,204.403155121,nV_V,1,204.408002315,205.645759156,1,1,0.761886422988,206.42822098,2,0,0.100456215441,5,6.5,32,bw,99.779932255,2019_jun_06_1545,012,256,20,5,maria,Experiment_EEG_version,20,
Living_Things,../experiment_stimuli/bw_bc_bl/Living_Things/Marine_creatures/manatee_19.jpg,Marine_creatures,0,manatee,0,50,50,52,208.26154442,nV_V,2,208.266334242,209.49413538,0,1,0.68155414518,210.196236441,2,0,0.0703810825944,5,8.0,32,bw,99.779932255,2019_jun_06_1545,012,256,20,5,maria,Experiment_EEG_version,20,
Living_Things,../experiment_stimuli/bw_bc_bl/Living_Things/Insects/butterfly_10.jpg,Insects,0,butterfly,0,51,51,10,211.999668227,nV_V,2,212.004661516,213.232253111,1,2,0.471252878662,213.724063572,1,1,0.120486751664,5,6.0,32,bw,99.779932255,2019_jun_06_1545,012,256,20,5,maria,Experiment_EEG_version,20,
Nonliving_Things,../experiment_stimuli/bw_bc_bl/Nonliving_Things/Furniture/sofa_21.jpg,Furniture,0,sofa,0,52,52,78,215.577452438,V_nV,2,215.582434239,216.820067093,1,2,0.511181280948,217.351795937,3,0,0.130513191223,5,6.5,32,bw,99.779932255,2019_jun_06_1545,012,256,20,5,maria,Experiment_EEG_version,20,
Nonliving_Things,../experiment_stimuli/bw_bc_bl/Nonliving_Things/Furniture/Chest-of-drawers_8.jpg,Furniture,0,Chest-of-drawers,0,53,53,0,219.215353022,V_nV,2,219.220129672,220.447938433,1,2,0.892167173792,221.360672621,2,0,0.280834124424,5,8.0,32,bw,99.779932255,2019_jun_06_1545,012,256,20,5,maria,Experiment_EEG_version,20,
Living_Things,../experiment_stimuli/bw_bc_bl/Living_Things/Insects/dragonfly_5.jpg,Insects,0,dragonfly,0,54,54,24,223.374398977,nV_V,2,223.379386597,224.616997895,1,2,0.791943748482,225.429500767,2,0,0.300869341474,5,6.0,32,bw,99.779932255,2019_jun_06_1545,012,256,20,5,maria,Experiment_EEG_version,20,
Nonliving_Things,../experiment_stimuli/bw_bc_bl/Nonliving_Things/Furniture/armchair_22.jpg,Furniture,0,armchair,0,55,55,2,227.463289542,nV_V,1,227.469120639,228.705891547,1,1,0.631603202783,229.358053037,3,0,0.160567305516,5,7.5,32,bw,99.779932255,2019_jun_06_1545,012,256,20,5,maria,Experiment_EEG_version,20,
Nonliving_Things,../experiment_stimuli/bw_bc_bl/Nonliving_Things/Tools/axe_23.jpg,Tools,0,axe,0,56,56,3,231.25152424,V_nV,2,231.256420527,232.494122519,1,2,0.741840710398,233.256525529,2,0,0.200502564665,5,6.0,32,bw,99.779932255,2019_jun_06_1545,012,256,20,5,maria,Experiment_EEG_version,20,
Nonliving_Things,../experiment_stimuli/bw_bc_bl/Nonliving_Things/Musical_Inst/saxophone_0.jpg,Musical_Inst,0,saxophone,0,57,57,72,235.190083334,nV_V,1,235.195143163,236.422663828,0,2,1.23290257202,237.676126534,1,1,0.100449911319,5,7.5,32,bw,99.779932255,2019_jun_06_1545,012,256,20,5,maria,Experiment_EEG_version,20,
Nonliving_Things,../experiment_stimuli/bw_bc_bl/Nonliving_Things/Vehicles/bus_25.jpg,Vehicles,0,bus,0,58,58,9,239.509471244,nV_V,1,239.514293077,240.772128849,1,1,0.541419821326,241.334092158,3,0,0.120489326771,5,6.0,32,bw,99.779932255,2019_jun_06_1545,012,256,20,5,maria,Experiment_EEG_version,20,
Nonliving_Things,../experiment_stimuli/bw_bc_bl/Nonliving_Things/Buildings/factory_3.jpg,Buildings,0,factory,0,59,59,28,243.187473329,nV_V,1,243.192275343,244.430082383,1,1,0.571466755588,245.022091412,3,0,0.110505661462,5,7.0,32,bw,99.779932255,2019_jun_06_1545,012,256,20,5,maria,Experiment_EEG_version,20,
Nonliving_Things,../experiment_stimuli/bw_bc_bl/Nonliving_Things/Kitchen_Uten/pot_7.jpg,Kitchen_Uten,0,pot,0,60,60,66,246.865470147,V_nV,2,246.87031907,248.098054013,1,2,0.681715698913,248.8003169,1,1,0.080394089222,5,8.0,32,bw,99.779932255,2019_jun_06_1545,012,256,20,5,maria,Experiment_EEG_version,20,
Nonliving_Things,../experiment_stimuli/bw_bc_bl/Nonliving_Things/Vehicles/car_16.jpg,Vehicles,0,car,0,61,61,11,250.613636595,V_nV,2,250.619738376,251.856224055,1,2,0.801969680004,252.678747798,1,1,0.100448005367,5,8.0,32,bw,99.779932255,2019_jun_06_1545,012,256,20,5,maria,Experiment_EEG_version,20,
Nonliving_Things,../experiment_stimuli/bw_bc_bl/Nonliving_Things/Vehicles/van_2.jpg,Vehicles,0,van,0,62,62,91,254.512085974,nV_V,1,254.51813047,255.764716159,1,1,1.23290966591,257.018183267,3,0,0.11053311266,5,6.5,32,bw,99.779932255,2019_jun_06_1545,012,256,20,5,maria,Experiment_EEG_version,20,
Living_Things,../experiment_stimuli/bw_bc_bl/Living_Things/Birds/raven_17.jpg,Birds,0,raven,0,63,63,67,258.861540555,nV_V,2,258.866276063,260.094125621,0,1,0.711777850986,260.826475768,2,0,0.190680385567,5,6.5,32,bw,99.779932255,2019_jun_06_1545,012,256,20,5,maria,Experiment_EEG_version,20,
Living_Things,../experiment_stimuli/bw_bc_bl/Living_Things/Animals/elephant_14.jpg,Animals,0,elephant,0,64,64,27,262.749993063,V_nV,1,262.754795399,263.982581572,1,1,0.58149834862,264.584636915,2,0,0.130518867634,5,6.0,32,bw,99.779932255,2019_jun_06_1545,012,256,20,5,maria,Experiment_EEG_version,20,
Nonliving_Things,../experiment_stimuli/bw_bc_bl/Nonliving_Things/Buildings/cathedral_6.jpg,Buildings,0,cathedral,0,65,65,14,266.448037278,nV_V,1,266.454112762,267.690641207,0,2,1.00240156846,268.723616436,1,1,0.0602016490884,5,6.0,32,bw,99.779932255,2019_jun_06_1545,012,256,20,5,maria,Experiment_EEG_version,20,
Nonliving_Things,../experiment_stimuli/bw_bc_bl/Nonliving_Things/Furniture/table_10.jpg,Furniture,0,table,0,66,66,81,270.516877679,nV_V,1,270.523112183,271.769511916,1,1,2.16494011506,273.955013045,3,0,0.200713587925,5,6.0,32,bw,99.779932255,2019_jun_06_1545,012,256,20,5,maria,Experiment_EEG_version,20,
Living_Things,../experiment_stimuli/bw_bc_bl/Living_Things/Animals/cow_23.jpg,Animals,0,cow,0,67,67,20,275.888567097,V_nV,1,275.8933966,277.13115911,1,1,0.661666930187,277.813375922,2,0,0.150562339928,5,6.0,32,bw,99.779932255,2019_jun_06_1545,012,256,20,5,maria,Experiment_EEG_version,20,
Nonliving_Things,../experiment_stimuli/bw_bc_bl/Nonliving_Things/Furniture/lamp_12.jpg,Furniture,0,lamp,0,68,68,46,279.696834256,V_nV,2,279.701622251,280.929429311,1,2,0.44118402712,281.391159168,1,1,0.0904136491008,5,7.5,32,bw,99.779932255,2019_jun_06_1545,012,256,20,5,maria,Experiment_EEG_version,20,
Nonliving_Things,../experiment_stimuli/bw_bc_bl/Nonliving_Things/Vehicles/tractor_11.jpg,Vehicles,0,tractor,0,69,69,86,283.21449442,nV_V,1,283.219280351,284.467110293,0,2,0.511337018572,284.999001468,3,0,0.120482770726,5,6.5,32,bw,99.779932255,2019_jun_06_1545,012,256,20,5,maria,Experiment_EEG_version,20,
Living_Things,../experiment_stimuli/bw_bc_bl/Living_Things/Animals/lioness_11.jpg,Animals,0,lioness,0,70,70,48,286.852390169,nV_V,2,286.857293862,288.084976486,0,1,0.761891614646,288.877456614,1,1,0.170588173904,5,8.0,32,bw,99.779932255,2019_jun_06_1545,012,256,20,5,maria,Experiment_EEG_version,20,
Living_Things,../experiment_stimuli/bw_bc_bl/Living_Things/Animals/turtle_4.jpg,Animals,0,turtle,0,71,71,90,290.780931305,V_nV,1,290.785818419,292.053602525,1,1,0.641622995026,292.715780335,3,0,0.140527050942,5,6.0,32,bw,99.779932255,2019_jun_06_1545,012,256,20,5,maria,Experiment_EEG_version,20,
Nonliving_Things,../experiment_stimuli/bw_bc_bl/Nonliving_Things/Kitchen_Uten/cup_6.jpg,Kitchen_Uten,0,cup,0,72,72,22,294.589216076,nV_V,1,294.595335692,295.831816856,1,1,0.771899824962,296.624269007,2,0,0.361019608099,5,7.0,32,bw,99.779932255,2019_jun_06_1545,012,256,20,5,maria,Experiment_EEG_version,20,
Living_Things,../experiment_stimuli/bw_bc_bl/Living_Things/Marine_creatures/narwhal_19.jpg,Marine_creatures,0,narwhal,0,73,73,55,298.718187519,V_nV,1,298.722973589,299.950772227,0,2,1.64379846584,301.615131271,1,1,0.0503474408761,5,6.0,32,bw,99.779932255,2019_jun_06_1545,012,256,20,5,maria,Experiment_EEG_version,20,
Nonliving_Things,../experiment_stimuli/bw_bc_bl/Nonliving_Things/Furniture/chair_14.jpg,Furniture,0,chair,0,74,74,15,303.398367634,nV_V,1,303.403224617,304.67103137,1,1,3.01679268945,307.708397464,3,0,0.240742131136,5,6.5,32,bw,99.779932255,2019_jun_06_1545,012,256,20,5,maria,Experiment_EEG_version,20,
Living_Things,../experiment_stimuli/bw_bc_bl/Living_Things/Birds/duck_18.jpg,Birds,0,duck,0,75,75,26,309.682029248,nV_V,2,309.686867242,310.934650809,1,2,0.641621104442,311.596837592,1,1,0.0703927027062,5,6.0,32,bw,99.779932255,2019_jun_06_1545,012,256,20,5,maria,Experiment_EEG_version,20,
Nonliving_Things,../experiment_stimuli/bw_bc_bl/Nonliving_Things/Vehicles/boat_15.jpg,Vehicles,0,boat,0,76,76,7,313.400122372,nV_V,1,313.40488254,314.662752507,1,1,0.461230372079,315.144556956,3,0,0.10046286555,5,7.5,32,bw,99.779932255,2019_jun_06_1545,012,256,20,5,maria,Experiment_EEG_version,20,
Living_Things,../experiment_stimuli/bw_bc_bl/Living_Things/Birds/rooster_17.jpg,Birds,0,rooster,0,77,77,70,316.977890565,nV_V,2,316.982656004,318.220486615,1,2,0.681709041353,318.922739264,1,1,0.100521687884,5,6.0,32,bw,99.779932255,2019_jun_06_1545,012,256,20,5,maria,Experiment_EEG_version,20,
Nonliving_Things,../experiment_stimuli/bw_bc_bl/Nonliving_Things/Kitchen_Uten/teapot_19.jpg,Kitchen_Uten,0,teapot,0,78,78,83,320.756098895,nV_V,1,320.760891987,322.028768702,1,1,1.46341431979,323.512739712,3,0,0.160419811029,5,6.0,32,bw,99.779932255,2019_jun_06_1545,012,256,20,5,maria,Experiment_EEG_version,20,
Living_Things,../experiment_stimuli/bw_bc_bl/Living_Things/Marine_creatures/pomfret_7.jpg,Marine_creatures,0,pomfret,0,79,79,65,325.406198983,V_nV,1,325.412429885,326.638790894,0,2,0.591513836756,327.250854861,1,1,0.0403071143664,5,6.5,32,bw,99.779932255,2019_jun_06_1545,012,256,20,5,maria,Experiment_EEG_version,20,
Nonliving_Things,../experiment_stimuli/bw_bc_bl/Nonliving_Things/Vehicles/train_8.jpg,Vehicles,0,train,0,80,80,87,329.024075936,V_nV,2,329.028861367,330.286720654,1,2,0.61155991815,330.918825432,1,1,0.0904209413566,5,6.5,32,bw,99.779932255,2019_jun_06_1545,012,256,20,5,maria,Experiment_EEG_version,20,
Living_Things,../experiment_stimuli/bw_bc_bl/Living_Things/Insects/scorpion_16.jpg,Insects,0,scorpion,0,81,81,73,332.742159743,nV_V,2,332.74700108,334.024846152,1,2,0.701754540205,334.747155702,1,1,0.0804106863216,5,6.0,32,bw,99.779932255,2019_jun_06_1545,012,256,20,5,maria,Experiment_EEG_version,20,
Nonliving_Things,../experiment_stimuli/bw_bc_bl/Nonliving_Things/Musical_Inst/guitar_15.jpg,Musical_Inst,0,guitar,0,82,82,36,336.560454861,nV_V,1,336.56522436,337.883233202,1,1,0.671680959407,338.575488371,3,0,0.11046274472,5,6.5,32,bw,99.779932255,2019_jun_06_1545,012,256,20,5,maria,Experiment_EEG_version,20,
Nonliving_Things,../experiment_stimuli/bw_bc_bl/Nonliving_Things/Furniture/wardrobe_9.jpg,Furniture,0,wardrobe,0,83,83,93,340.418842542,V_nV,2,340.42522518,341.711561525,1,2,0.471245548222,342.203348512,3,0,0.100534281693,5,6.5,32,bw,99.779932255,2019_jun_06_1545,012,256,20,5,maria,Experiment_EEG_version,20,
Nonliving_Things,../experiment_stimuli/bw_bc_bl/Nonliving_Things/Kitchen_Uten/frying-pan_25.jpg,Kitchen_Uten,0,frying-pan,0,84,84,31,344.036707421,nV_V,1,344.041412376,345.299354883,1,1,0.521369217429,345.841274434,3,0,0.110451594926,5,6.0,32,bw,99.779932255,2019_jun_06_1545,012,256,20,5,maria,Experiment_EEG_version,20,
Living_Things,../experiment_stimuli/bw_bc_bl/Living_Things/Animals/rhino_1.jpg,Animals,0,rhino,0,85,85,68,347.684634741,V_nV,1,347.68949401,348.927254478,0,2,0.571477135178,349.519289861,3,0,0.120481402148,5,7.0,32,bw,99.779932255,2019_jun_06_1545,012,256,20,5,maria,Experiment_EEG_version,20,
Nonliving_Things,../experiment_stimuli/bw_bc_bl/Nonliving_Things/Kitchen_Uten/small-saucepan_4.jpg,Kitchen_Uten,0,small-saucepan,0,86,86,77,351.372652585,nV_V,1,351.377536639,352.605234278,1,1,0.691568407696,353.317379707,2,0,0.0804007207043,5,7.0,32,bw,99.779932255,2019_jun_06_1545,012,256,20,5,maria,Experiment_EEG_version,20,
Nonliving_Things,../experiment_stimuli/bw_bc_bl/Nonliving_Things/Buildings/granary_20.jpg,Buildings,0,granary,0,87,87,35,355.130822048,V_nV,2,355.135649888,356.363409049,1,2,0.511180735659,356.895154238,1,1,0.280884255189,5,6.0,32,bw,99.779932255,2019_jun_06_1545,012,256,20,5,maria,Experiment_EEG_version,20,
Living_Things,../experiment_stimuli/bw_bc_bl/Living_Things/Birds/penguin_3.jpg,Birds,0,penguin,0,88,88,61,358.909037107,nV_V,2,358.913846711,360.16166454,1,2,0.501317173708,360.683531987,1,1,0.110461828299,5,6.0,32,bw,99.779932255,2019_jun_06_1545,012,256,20,5,maria,Experiment_EEG_version,20,
Nonliving_Things,../experiment_stimuli/bw_bc_bl/Nonliving_Things/Furniture/bookcase_10.jpg,Furniture,0,bookcase,0,89,89,8,362.526900816,V_nV,2,362.531691548,363.799578105,1,2,1.75405705534,365.574177897,3,0,0.120478342287,5,6.0,32,bw,99.779932255,2019_jun_06_1545,012,256,20,5,maria,Experiment_EEG_version,20,
Nonliving_Things,../experiment_stimuli/bw_bc_bl/Nonliving_Things/Kitchen_Uten/fondue_10.jpg,Kitchen_Uten,0,fondue,0,90,90,30,367.427594255,nV_V,1,367.4324154,368.670159678,1,1,0.602297468111,369.293023396,3,0,0.140574152581,5,6.5,32,bw,99.779932255,2019_jun_06_1545,012,256,20,5,maria,Experiment_EEG_version,20,
Nonliving_Things,../experiment_stimuli/bw_bc_bl/Nonliving_Things/Musical_Inst/drum_19.jpg,Musical_Inst,0,drum,0,91,91,25,371.165679502,V_nV,2,371.170446933,372.398269319,1,2,0.561446338892,372.980264781,1,1,0.0804006303661,5,7.0,32,bw,99.779932255,2019_jun_06_1545,012,256,20,5,maria,Experiment_EEG_version,20,
Living_Things,../experiment_stimuli/bw_bc_bl/Living_Things/Animals/cat_7.jpg,Animals,0,cat,0,92,92,13,374.793569263,nV_V,2,374.798424419,376.036170742,0,1,0.84205499338,376.898808613,3,0,0.130511371419,5,6.5,32,bw,99.779932255,2019_jun_06_1545,012,256,20,5,maria,Experiment_EEG_version,20,
Living_Things,../experiment_stimuli/bw_bc_bl/Living_Things/Animals/hippopotamus_5.jpg,Animals,0,hippopotamus,0,93,93,39,378.762192317,V_nV,1,378.767050684,379.994777958,1,1,0.731821951456,380.747145913,2,0,0.110467944294,5,6.0,32,bw,99.779932255,2019_jun_06_1545,012,256,20,5,maria,Experiment_EEG_version,20,
Nonliving_Things,../experiment_stimuli/bw_bc_bl/Nonliving_Things/Vehicles/ship_4.jpg,Vehicles,0,ship,0,94,94,76,382.59051632,nV_V,1,382.595351071,383.823108191,1,1,1.28301227605,385.126676266,2,0,0.1204983606,5,6.5,32,bw,99.779932255,2019_jun_06_1545,012,256,20,5,maria,Experiment_EEG_version,20,
Nonliving_Things,../experiment_stimuli/bw_bc_bl/Nonliving_Things/Kitchen_Uten/coking-pot_9.jpg,Kitchen_Uten,0,coking-pot,0,95,95,18,386.980058407,V_nV,2,386.984840989,388.212644657,1,2,0.511341210455,388.744538956,1,1,0.130349576939,5,7.5,32,bw,99.779932255,2019_jun_06_1545,012,256,20,5,maria,Experiment_EEG_version,20,
