category,probe_path,subcategory,fixation_duration,label,trials.thisRepN,trials.thisTrialN,trials.thisN,trials.thisIndex,image_onset_time,response_window,correctAns,probe_onset,discrim_resptime,response.corr,response.keys,response.rt,visible_resptime,visible.keys,visible.corr,visible.rt,probeFrames,jitter2,n_square,experiment_color,frameRate,date,session,image_size,premask_dur,probeFrames,participant,expName,postmask_dur,
Nonliving_Things,../experiment_stimuli/bw_bc_bl/Nonliving_Things/Vehicles/plane_7.jpg,Vehicles,0,plane,0,0,0,64,3.71542761615,V_nV,2,3.73635560973,4.99808820896,1,2,1.15273272758,6.18166624336,2,0,0.180603785906,5,6.5,32,bw,99.781930935,2019_jun_06_1538,011,256,20,5,maria,Experiment_EEG_version,20,
Nonliving_Things,../experiment_stimuli/bw_bc_bl/Nonliving_Things/Buildings/mill_17.jpg,Buildings,0,mill,0,1,1,53,8.09493092541,V_nV,2,8.09980928805,9.35756439902,1,2,0.461225699168,9.83936278801,1,1,0.0403039674275,5,6.0,32,bw,99.781930935,2019_jun_06_1538,011,256,20,5,maria,Experiment_EEG_version,20,
Living_Things,../experiment_stimuli/bw_bc_bl/Living_Things/Animals/elephant_25.jpg,Animals,0,elephant,0,2,2,27,11.6125698481,V_nV,1,11.6175216492,12.9052845975,1,1,0.491290527862,13.4171206355,3,0,0.120487597771,5,6.0,32,bw,99.781930935,2019_jun_06_1538,011,256,20,5,maria,Experiment_EEG_version,20,
Nonliving_Things,../experiment_stimuli/bw_bc_bl/Nonliving_Things/Furniture/sofa_11.jpg,Furniture,0,sofa,0,3,3,78,15.2705138894,V_nV,2,15.2753038923,16.53316331,1,2,0.531380506232,17.0851436714,3,0,0.0904149156995,5,6.0,32,bw,99.781930935,2019_jun_06_1538,011,256,20,5,maria,Experiment_EEG_version,20,
Living_Things,../experiment_stimuli/bw_bc_bl/Living_Things/Insects/scorpion_11.jpg,Insects,0,scorpion,0,4,4,73,18.9084268077,nV_V,2,18.9134314354,20.1410032944,0,1,0.591515407898,20.7530709459,2,0,0.0904211113229,5,8.0,32,bw,99.781930935,2019_jun_06_1538,011,256,20,5,maria,Experiment_EEG_version,20,
Nonliving_Things,../experiment_stimuli/bw_bc_bl/Nonliving_Things/Furniture/lectern_7.jpg,Furniture,0,lectern,0,5,5,47,22.5764093404,nV_V,1,22.5811910732,23.8089787858,0,2,0.54124463629,24.370776101,1,1,0.0703803794459,5,6.0,32,bw,99.781930935,2019_jun_06_1538,011,256,20,5,maria,Experiment_EEG_version,20,
Living_Things,../experiment_stimuli/bw_bc_bl/Living_Things/Birds/rooster_22.jpg,Birds,0,rooster,0,6,6,70,26.1742178295,V_nV,1,26.1791302706,27.416818996,1,1,0.721793621778,28.1591571914,1,1,0.170612793881,5,6.5,32,bw,99.781930935,2019_jun_06_1538,011,256,20,5,maria,Experiment_EEG_version,20,
Living_Things,../experiment_stimuli/bw_bc_bl/Living_Things/Animals/turtle_1.jpg,Animals,0,turtle,0,7,7,90,30.0626719566,nV_V,2,30.06805806,31.3353406773,1,2,0.761883524712,32.1177588892,1,1,0.0403085881844,5,7.5,32,bw,99.781930935,2019_jun_06_1538,011,256,20,5,maria,Experiment_EEG_version,20,
Living_Things,../experiment_stimuli/bw_bc_bl/Living_Things/Marine_creatures/pomfret_5.jpg,Marine_creatures,0,pomfret,0,8,8,65,33.8909949414,V_nV,1,33.8957936508,35.183707627,1,1,0.852082083002,36.0563416933,2,0,0.120480831247,5,6.5,32,bw,99.781930935,2019_jun_06_1538,011,256,20,5,maria,Experiment_EEG_version,20,
Nonliving_Things,../experiment_stimuli/bw_bc_bl/Nonliving_Things/Musical_Inst/violin_15.jpg,Musical_Inst,0,violin,0,9,9,92,37.9097302025,nV_V,1,37.914645392,39.1924180058,1,1,0.571472777985,39.7844292452,3,0,0.0904202843085,5,6.5,32,bw,99.781930935,2019_jun_06_1538,011,256,20,5,maria,Experiment_EEG_version,20,
Nonliving_Things,../experiment_stimuli/bw_bc_bl/Nonliving_Things/Furniture/couch_13.jpg,Furniture,0,couch,0,10,10,19,41.6077766884,nV_V,1,41.6131692803,42.8603895837,1,1,1.08258257853,43.963553559,1,1,0.210690268315,5,7.0,32,bw,99.781930935,2019_jun_06_1538,011,256,20,5,maria,Experiment_EEG_version,20,
Living_Things,../experiment_stimuli/bw_bc_bl/Living_Things/Animals/horse_10.jpg,Animals,0,horse,0,11,11,40,45.9071159312,nV_V,2,45.9131879159,47.1797824642,1,2,1.32311438909,48.5234620511,3,0,0.0703770257533,5,6.0,32,bw,99.781930935,2019_jun_06_1538,011,256,20,5,maria,Experiment_EEG_version,20,
Living_Things,../experiment_stimuli/bw_bc_bl/Living_Things/Insects/ladybird_8.jpg,Insects,0,ladybird,0,12,12,45,50.3267216319,V_nV,1,50.33152215,51.5793446396,1,1,1.03246624721,52.6323575852,3,0,0.100445054006,5,7.5,32,bw,99.781930935,2019_jun_06_1538,011,256,20,5,maria,Experiment_EEG_version,20,
Nonliving_Things,../experiment_stimuli/bw_bc_bl/Nonliving_Things/Kitchen_Uten/frying-pan_16.jpg,Kitchen_Uten,0,frying-pan,0,13,13,31,54.4657433885,V_nV,2,54.4705066327,55.6982990634,1,2,1.07255415851,56.7914083335,1,1,0.0503286402673,5,6.0,32,bw,99.781930935,2019_jun_06_1538,011,256,20,5,maria,Experiment_EEG_version,20,
Living_Things,../experiment_stimuli/bw_bc_bl/Living_Things/Animals/zebra_15.jpg,Animals,0,zebra,0,14,14,95,58.5746514564,nV_V,2,58.579575371,59.8172546644,1,2,0.932256528176,60.7700549997,1,1,0.110454041976,5,6.0,32,bw,99.781930935,2019_jun_06_1538,011,256,20,5,maria,Experiment_EEG_version,20,
Living_Things,../experiment_stimuli/bw_bc_bl/Living_Things/Marine_creatures/dolphin_21.jpg,Marine_creatures,0,dolphin,0,15,15,23,62.6134296036,V_nV,1,62.6183714052,63.8760733888,0,2,1.87429717975,65.7709414884,1,1,0.0302774347365,5,6.5,32,bw,99.781930935,2019_jun_06_1538,011,256,20,5,maria,Experiment_EEG_version,20,
Nonliving_Things,../experiment_stimuli/bw_bc_bl/Nonliving_Things/Furniture/filling-cabinet_6.jpg,Furniture,0,filling-cabinet,0,16,16,29,67.5341306617,nV_V,1,67.5390938544,68.8068008334,1,1,0.942294704262,69.7696310971,2,0,0.11046967376,5,7.5,32,bw,99.781930935,2019_jun_06_1538,011,256,20,5,maria,Experiment_EEG_version,20,
Living_Things,../experiment_stimuli/bw_bc_bl/Living_Things/Marine_creatures/crab_20.jpg,Marine_creatures,0,crab,0,17,17,21,71.6129953931,nV_V,2,71.6180773168,72.8756377762,1,2,0.832050515804,73.7282513701,1,1,0.0503245238215,5,7.0,32,bw,99.781930935,2019_jun_06_1538,011,256,20,5,maria,Experiment_EEG_version,20,
Nonliving_Things,../experiment_stimuli/bw_bc_bl/Nonliving_Things/Buildings/factory_26.jpg,Buildings,0,factory,0,18,18,28,75.5114738992,V_nV,2,75.5177006638,76.804180224,1,2,1.51335606677,78.3380912035,1,1,0.15054388158,5,6.0,32,bw,99.781930935,2019_jun_06_1538,011,256,20,5,maria,Experiment_EEG_version,20,
Living_Things,../experiment_stimuli/bw_bc_bl/Living_Things/Birds/goose_17.jpg,Birds,0,goose,0,19,19,34,80.2217077836,V_nV,1,80.2266588556,81.5244440059,1,1,0.992390505504,82.5374109088,3,0,0.140379414428,5,6.0,32,bw,99.781930935,2019_jun_06_1538,011,256,20,5,maria,Experiment_EEG_version,20,
Nonliving_Things,../experiment_stimuli/bw_bc_bl/Nonliving_Things/Furniture/wardrobe_14.jpg,Furniture,0,wardrobe,0,20,20,93,84.4108175184,nV_V,1,84.4155523232,85.6935078287,0,2,1.60372115253,87.3177923374,3,0,0.0904215732589,5,6.5,32,bw,99.781930935,2019_jun_06_1538,011,256,20,5,maria,Experiment_EEG_version,20,
Living_Things,../experiment_stimuli/bw_bc_bl/Living_Things/Birds/hen_16.jpg,Birds,0,hen,0,21,21,38,89.1411041082,nV_V,2,89.146660307,90.3937188005,1,2,0.791945237201,91.206220476,2,0,0.230727233458,5,6.0,32,bw,99.781930935,2019_jun_06_1538,011,256,20,5,maria,Experiment_EEG_version,20,
Living_Things,../experiment_stimuli/bw_bc_bl/Living_Things/Marine_creatures/narwhal_4.jpg,Marine_creatures,0,narwhal,0,22,22,55,93.1698552635,V_nV,1,93.1763223517,94.4124565544,0,2,2.43552075885,96.8685325752,1,1,0.0403053890914,5,6.0,32,bw,99.781930935,2019_jun_06_1538,011,256,20,5,maria,Experiment_EEG_version,20,
Nonliving_Things,../experiment_stimuli/bw_bc_bl/Nonliving_Things/Furniture/bookcase_3.jpg,Furniture,0,bookcase,0,23,23,8,98.6417675065,nV_V,1,98.646995849,99.9043985703,1,1,0.591532723513,100.516488041,3,0,0.110461478122,5,8.0,32,bw,99.781930935,2019_jun_06_1538,011,256,20,5,maria,Experiment_EEG_version,20,
Living_Things,../experiment_stimuli/bw_bc_bl/Living_Things/Animals/tiger_4.jpg,Animals,0,tiger,0,24,24,84,102.359829443,V_nV,1,102.364971519,103.602433237,0,2,0.882143084425,104.505157684,3,0,0.0703931609169,5,6.0,32,bw,99.781930935,2019_jun_06_1538,011,256,20,5,maria,Experiment_EEG_version,20,
Nonliving_Things,../experiment_stimuli/bw_bc_bl/Nonliving_Things/Musical_Inst/tuba_2.jpg,Musical_Inst,0,tuba,0,25,25,89,106.308438084,nV_V,1,106.314971923,107.540998139,1,1,0.771907365881,108.333460023,2,0,0.100675456692,5,6.5,32,bw,99.781930935,2019_jun_06_1538,011,256,20,5,maria,Experiment_EEG_version,20,
Living_Things,../experiment_stimuli/bw_bc_bl/Living_Things/Birds/hummingbird_25.jpg,Birds,0,hummingbird,0,26,26,42,110.166804831,V_nV,1,110.172500516,111.399381091,0,2,0.591506363358,112.021467156,1,1,0.0603792066686,5,6.0,32,bw,99.781930935,2019_jun_06_1538,011,256,20,5,maria,Experiment_EEG_version,20,
Living_Things,../experiment_stimuli/bw_bc_bl/Living_Things/Animals/cow_22.jpg,Animals,0,cow,0,27,27,20,113.814733026,nV_V,2,113.820344604,115.067359858,0,1,0.661686452571,115.749586688,2,0,0.130348140839,5,6.5,32,bw,99.781930935,2019_jun_06_1538,011,256,20,5,maria,Experiment_EEG_version,20,
Living_Things,../experiment_stimuli/bw_bc_bl/Living_Things/Marine_creatures/whale_20.jpg,Marine_creatures,0,whale,0,28,28,94,117.612998261,nV_V,2,117.618678954,118.855593845,0,1,2.06472230982,120.940884296,2,0,0.140547137707,5,7.0,32,bw,99.781930935,2019_jun_06_1538,011,256,20,5,maria,Experiment_EEG_version,20,
Nonliving_Things,../experiment_stimuli/bw_bc_bl/Nonliving_Things/Musical_Inst/guitar_7.jpg,Musical_Inst,0,guitar,0,29,29,36,122.814295019,nV_V,1,122.820873068,124.046879772,1,1,0.761878757738,124.829301619,2,0,0.110454470385,5,6.0,32,bw,99.781930935,2019_jun_06_1538,011,256,20,5,maria,Experiment_EEG_version,20,
Nonliving_Things,../experiment_stimuli/bw_bc_bl/Nonliving_Things/Furniture/lamp_11.jpg,Furniture,0,lamp,0,30,30,46,126.672688742,nV_V,1,126.677448888,127.905261345,1,1,0.671701425221,128.597530837,2,0,0.0904153632,5,6.5,32,bw,99.781930935,2019_jun_06_1538,011,256,20,5,maria,Experiment_EEG_version,20,
Living_Things,../experiment_stimuli/bw_bc_bl/Living_Things/Animals/hippopotamus_12.jpg,Animals,0,hippopotamus,0,31,31,39,130.420831991,V_nV,1,130.426734012,131.653411591,0,2,0.581488709897,132.255460912,1,1,0.0904186265543,5,6.0,32,bw,99.781930935,2019_jun_06_1538,011,256,20,5,maria,Experiment_EEG_version,20,
Living_Things,../experiment_stimuli/bw_bc_bl/Living_Things/Animals/lynx_22.jpg,Animals,0,lynx,0,32,32,50,134.078787852,V_nV,1,134.084152031,135.331407766,0,2,0.621574537829,135.973540931,3,0,0.14037405001,5,6.0,32,bw,99.781930935,2019_jun_06_1538,011,256,20,5,maria,Experiment_EEG_version,20,
Living_Things,../experiment_stimuli/bw_bc_bl/Living_Things/Marine_creatures/killer-whale_7.jpg,Marine_creatures,0,killer-whale,0,33,33,43,137.846976987,V_nV,1,137.851788426,139.079558083,0,2,0.511340594385,139.611452634,2,0,0.200649017468,5,6.5,32,bw,99.781930935,2019_jun_06_1538,011,256,20,5,maria,Experiment_EEG_version,20,
Nonliving_Things,../experiment_stimuli/bw_bc_bl/Nonliving_Things/Tools/axe_13.jpg,Tools,0,axe,0,34,34,3,141.545031582,nV_V,1,141.549942106,142.777598117,1,1,0.6115515274,143.409703121,2,0,0.100543871988,5,7.5,32,bw,99.781930935,2019_jun_06_1538,011,256,20,5,maria,Experiment_EEG_version,20,
Nonliving_Things,../experiment_stimuli/bw_bc_bl/Nonliving_Things/Furniture/table_3.jpg,Furniture,0,table,0,35,35,81,145.243076966,nV_V,1,145.248024906,146.475635149,1,1,0.621423081961,147.11760283,2,0,0.0703741274774,5,6.0,32,bw,99.781930935,2019_jun_06_1538,011,256,20,5,maria,Experiment_EEG_version,20,
Living_Things,../experiment_stimuli/bw_bc_bl/Living_Things/Insects/butterfly_15.jpg,Insects,0,butterfly,0,36,36,10,148.921055799,nV_V,2,148.926130354,150.153631782,0,1,0.811982450075,150.986168671,2,0,0.120479853358,5,6.0,32,bw,99.781930935,2019_jun_06_1538,011,256,20,5,maria,Experiment_EEG_version,20,
Nonliving_Things,../experiment_stimuli/bw_bc_bl/Nonliving_Things/Tools/hammer_15.jpg,Tools,0,hammer,0,37,37,37,152.839577233,nV_V,1,152.844502617,154.072151896,1,1,0.571309299208,154.664029232,2,0,0.0503350761719,5,7.5,32,bw,99.781930935,2019_jun_06_1538,011,256,20,5,maria,Experiment_EEG_version,20,
Living_Things,../experiment_stimuli/bw_bc_bl/Living_Things/Animals/cheetah_8.jpg,Animals,0,cheetah,0,38,38,16,156.447416405,nV_V,2,156.452351963,157.679995681,0,1,0.862103021704,158.562635356,2,0,0.0904356599785,5,6.0,32,bw,99.781930935,2019_jun_06_1538,011,256,20,5,maria,Experiment_EEG_version,20,
Nonliving_Things,../experiment_stimuli/bw_bc_bl/Nonliving_Things/Furniture/Chest-of-drawers_5.jpg,Furniture,0,Chest-of-drawers,0,39,39,0,160.385975172,V_nV,2,160.392694467,161.618559722,1,2,1.52353818482,163.162641082,1,1,0.150547298603,5,6.0,32,bw,99.781930935,2019_jun_06_1538,011,256,20,5,maria,Experiment_EEG_version,20,
Nonliving_Things,../experiment_stimuli/bw_bc_bl/Nonliving_Things/Vehicles/tractor_18.jpg,Vehicles,0,tractor,0,40,40,86,165.046106823,nV_V,1,165.051996355,166.298730056,1,1,0.561461962294,166.880746292,3,0,0.070368826855,5,7.5,32,bw,99.781930935,2019_jun_06_1538,011,256,20,5,maria,Experiment_EEG_version,20,
Nonliving_Things,../experiment_stimuli/bw_bc_bl/Nonliving_Things/Vehicles/car_21.jpg,Vehicles,0,car,0,41,41,11,168.684018204,nV_V,1,168.689812782,169.916594454,1,1,0.70174988592,170.638906274,2,0,0.130351463798,5,6.5,32,bw,99.781930935,2019_jun_06_1538,011,256,20,5,maria,Experiment_EEG_version,20,
Nonliving_Things,../experiment_stimuli/bw_bc_bl/Nonliving_Things/Musical_Inst/piano__4.jpg,Musical_Inst,0,piano,0,42,42,62,172.502314538,V_nV,2,172.50724981,173.734894447,1,2,0.591550193727,174.347007086,1,1,0.100438565016,5,6.0,32,bw,99.781930935,2019_jun_06_1538,011,256,20,5,maria,Experiment_EEG_version,20,
Living_Things,../experiment_stimuli/bw_bc_bl/Living_Things/Birds/kiwi_22.jpg,Birds,0,kiwi,0,43,43,44,176.180317575,V_nV,1,176.185136393,177.442959386,1,1,1.32310129562,178.786592335,2,0,0.100438681897,5,6.0,32,bw,99.781930935,2019_jun_06_1538,011,256,20,5,maria,Experiment_EEG_version,20,
Nonliving_Things,../experiment_stimuli/bw_bc_bl/Nonliving_Things/Buildings/palace_4.jpg,Buildings,0,palace,0,44,44,58,180.619960722,nV_V,1,180.624829723,181.872586688,0,2,3.23726084828,185.130406843,1,1,0.0403050091118,5,6.0,32,bw,99.781930935,2019_jun_06_1538,011,256,20,5,maria,Experiment_EEG_version,20,
Living_Things,../experiment_stimuli/bw_bc_bl/Living_Things/Birds/sparrow_1.jpg,Birds,0,sparrow,0,45,45,79,186.903619952,nV_V,2,186.909786653,188.176290402,0,1,1.24294655211,189.43980872,2,0,0.100543518551,5,6.0,32,bw,99.781930935,2019_jun_06_1538,011,256,20,5,maria,Experiment_EEG_version,20,
Living_Things,../experiment_stimuli/bw_bc_bl/Living_Things/Insects/dragonfly_1.jpg,Insects,0,dragonfly,0,46,46,24,191.273120175,V_nV,1,191.280145702,192.535770362,1,1,0.711793305818,193.26812728,3,0,0.120480240788,5,6.0,32,bw,99.781930935,2019_jun_06_1538,011,256,20,5,maria,Experiment_EEG_version,20,
Nonliving_Things,../experiment_stimuli/bw_bc_bl/Nonliving_Things/Buildings/granary_3.jpg,Buildings,0,granary,0,47,47,35,195.121496891,V_nV,2,195.126420343,196.36409029,0,1,0.511341996491,196.895998973,2,0,0.0704018003307,5,7.0,32,bw,99.781930935,2019_jun_06_1538,011,256,20,5,maria,Experiment_EEG_version,20,
Living_Things,../experiment_stimuli/bw_bc_bl/Living_Things/Marine_creatures/manatee_26.jpg,Marine_creatures,0,manatee,0,48,48,52,198.699261686,nV_V,2,198.704002065,199.931859101,0,1,2.39544912195,202.347865379,2,0,0.551501436625,5,6.5,32,bw,99.781930935,2019_jun_06_1538,011,256,20,5,maria,Experiment_EEG_version,20,
Living_Things,../experiment_stimuli/bw_bc_bl/Living_Things/Birds/pigeon_12.jpg,Birds,0,pigeon,0,49,49,63,204.632184811,V_nV,1,204.637085467,205.864745031,1,1,1.11265047872,206.997932926,1,1,0.200650397222,5,6.0,32,bw,99.781930935,2019_jun_06_1538,011,256,20,5,maria,Experiment_EEG_version,20,
Living_Things,../experiment_stimuli/bw_bc_bl/Living_Things/Animals/armadillo_5.jpg,Animals,0,armadillo,0,50,50,1,208.931510937,V_nV,1,208.936404296,210.174113175,0,2,1.07255856087,211.267226445,1,1,0.070374800358,5,6.0,32,bw,99.781930935,2019_jun_06_1538,011,256,20,5,maria,Experiment_EEG_version,20,
Living_Things,../experiment_stimuli/bw_bc_bl/Living_Things/Marine_creatures/sperm-whale_20.jpg,Marine_creatures,0,sperm-whale,0,51,51,80,213.070504601,V_nV,1,213.075232574,214.33316413,1,1,0.791962853167,215.145680873,2,0,0.120479342528,5,6.5,32,bw,99.781930935,2019_jun_06_1538,011,256,20,5,maria,Experiment_EEG_version,20,
Nonliving_Things,../experiment_stimuli/bw_bc_bl/Nonliving_Things/Vehicles/motorbike_17.jpg,Vehicles,0,motorbike,0,52,52,54,216.999047695,V_nV,2,217.005028425,218.261692093,1,2,0.701792516746,218.984048819,3,0,0.090431610588,5,7.5,32,bw,99.781930935,2019_jun_06_1538,011,256,20,5,maria,Experiment_EEG_version,20,
Living_Things,../experiment_stimuli/bw_bc_bl/Living_Things/Marine_creatures/shark_24.jpg,Marine_creatures,0,shark,0,53,53,75,220.807327681,nV_V,2,220.812121504,222.049926551,0,1,0.711771667004,222.782257506,1,1,0.170584745239,5,6.0,32,bw,99.781930935,2019_jun_06_1538,011,256,20,5,maria,Experiment_EEG_version,20,
Nonliving_Things,../experiment_stimuli/bw_bc_bl/Nonliving_Things/Kitchen_Uten/fondue_14.jpg,Kitchen_Uten,0,fondue,0,54,54,30,224.685760805,V_nV,2,224.690495076,225.948400715,1,2,0.801974029746,226.770935424,3,0,0.090269729495,5,6.0,32,bw,99.781930935,2019_jun_06_1538,011,256,20,5,maria,Experiment_EEG_version,20,
Nonliving_Things,../experiment_stimuli/bw_bc_bl/Nonliving_Things/Kitchen_Uten/pot_9.jpg,Kitchen_Uten,0,pot,0,55,55,66,228.594255822,V_nV,2,228.598972634,229.836862819,1,2,0.812008457258,230.669409919,3,0,0.090433313977,5,6.0,32,bw,99.781930935,2019_jun_06_1538,011,256,20,5,maria,Experiment_EEG_version,20,
Nonliving_Things,../experiment_stimuli/bw_bc_bl/Nonliving_Things/Vehicles/ship_11.jpg,Vehicles,0,ship,0,56,56,76,232.492738429,nV_V,1,232.497476817,233.725324082,0,2,0.711782347877,234.457636868,1,1,0.0703793829307,5,6.0,32,bw,99.781930935,2019_jun_06_1538,011,256,20,5,maria,Experiment_EEG_version,20,
Nonliving_Things,../experiment_stimuli/bw_bc_bl/Nonliving_Things/Furniture/rocking-chair_16.jpg,Furniture,0,rocking-chair,0,57,57,69,236.260917869,V_nV,2,236.265766488,237.503524484,1,2,1.08257967234,238.606644144,2,0,0.220701823942,5,6.0,32,bw,99.781930935,2019_jun_06_1538,011,256,20,5,maria,Experiment_EEG_version,20,
Nonliving_Things,../experiment_stimuli/bw_bc_bl/Nonliving_Things/Furniture/bedside-table_5.jpg,Furniture,0,bedside-table,0,58,58,6,240.56027115,V_nV,2,240.565118953,241.792845441,1,2,0.481279370841,242.29467013,1,1,0.100479027256,5,8.0,32,bw,99.781930935,2019_jun_06_1538,011,256,20,5,maria,Experiment_EEG_version,20,
Nonliving_Things,../experiment_stimuli/bw_bc_bl/Nonliving_Things/Furniture/bed_10.jpg,Furniture,0,bed,0,59,59,5,244.128023724,nV_V,1,244.132741938,245.380649051,1,1,0.972343800124,246.373547229,3,0,0.110462011769,5,7.5,32,bw,99.781930935,2019_jun_06_1538,011,256,20,5,maria,Experiment_EEG_version,20,
Living_Things,../experiment_stimuli/bw_bc_bl/Living_Things/Animals/lioness_9.jpg,Animals,0,lioness,0,60,60,48,248.216911194,nV_V,2,248.221792952,249.459513913,0,1,0.661680027377,250.141742553,3,0,0.120528600644,5,6.0,32,bw,99.781930935,2019_jun_06_1538,011,256,20,5,maria,Experiment_EEG_version,20,
Living_Things,../experiment_stimuli/bw_bc_bl/Living_Things/Birds/penguin_23.jpg,Birds,0,penguin,0,61,61,61,251.995133095,nV_V,2,251.999930159,253.22771168,0,1,0.881982620806,254.130269333,2,0,0.100438802037,5,6.5,32,bw,99.781930935,2019_jun_06_1538,011,256,20,5,maria,Experiment_EEG_version,20,
Nonliving_Things,../experiment_stimuli/bw_bc_bl/Nonliving_Things/Musical_Inst/drum_15.jpg,Musical_Inst,0,drum,0,62,62,25,255.963748812,nV_V,1,255.968532345,257.19633346,1,1,1.67388078291,258.890772787,3,0,0.110310164746,5,8.0,32,bw,99.781930935,2019_jun_06_1538,011,256,20,5,maria,Experiment_EEG_version,20,
Nonliving_Things,../experiment_stimuli/bw_bc_bl/Nonliving_Things/Musical_Inst/saxophone_24.jpg,Musical_Inst,0,saxophone,0,63,63,72,260.734122365,nV_V,1,260.739164026,261.976726735,1,1,0.691732822917,262.689013003,2,0,0.100449952763,5,6.5,32,bw,99.781930935,2019_jun_06_1538,011,256,20,5,maria,Experiment_EEG_version,20,
Nonliving_Things,../experiment_stimuli/bw_bc_bl/Nonliving_Things/Buildings/castle_2.jpg,Buildings,0,castle,0,64,64,12,264.522372841,nV_V,1,264.528402097,265.754942692,1,1,0.65148037672,266.427006541,2,0,0.120331769343,5,7.0,32,bw,99.781930935,2019_jun_06_1538,011,256,20,5,maria,Experiment_EEG_version,20,
Living_Things,../experiment_stimuli/bw_bc_bl/Living_Things/Birds/magpie_25.jpg,Birds,0,magpie,0,65,65,51,268.280528793,nV_V,2,268.285460151,269.513111651,0,1,0.561451436486,270.105146078,3,0,0.110503507778,5,6.5,32,bw,99.781930935,2019_jun_06_1538,011,256,20,5,maria,Experiment_EEG_version,20,
Living_Things,../experiment_stimuli/bw_bc_bl/Living_Things/Birds/goldfinch_20.jpg,Birds,0,goldfinch,0,66,66,33,271.948504044,nV_V,2,271.953241379,273.191103778,0,1,0.661681189202,273.873341579,2,0,0.0603462411091,5,6.5,32,bw,99.781930935,2019_jun_06_1538,011,256,20,5,maria,Experiment_EEG_version,20,
Nonliving_Things,../experiment_stimuli/bw_bc_bl/Nonliving_Things/Kitchen_Uten/cup_15.jpg,Kitchen_Uten,0,cup,0,67,67,22,275.666590648,V_nV,2,275.67127289,276.899163985,1,2,0.781945346389,277.701657368,1,1,0.110460872762,5,6.0,32,bw,99.781930935,2019_jun_06_1538,011,256,20,5,maria,Experiment_EEG_version,20,
Nonliving_Things,../experiment_stimuli/bw_bc_bl/Nonliving_Things/Buildings/house_2.jpg,Buildings,0,house,0,68,68,41,279.545014415,nV_V,1,279.549859658,280.797644987,1,1,2.85645628255,283.674663336,3,0,0.06035146676,5,7.0,32,bw,99.781930935,2019_jun_06_1538,011,256,20,5,maria,Experiment_EEG_version,20,
Living_Things,../experiment_stimuli/bw_bc_bl/Living_Things/Birds/ostrich_24.jpg,Birds,0,ostrich,0,69,69,56,285.467894023,V_nV,1,285.472680376,286.700471292,0,2,0.731832770631,287.452850434,3,0,0.140525491443,5,7.5,32,bw,99.781930935,2019_jun_06_1538,011,256,20,5,maria,Experiment_EEG_version,20,
Nonliving_Things,../experiment_stimuli/bw_bc_bl/Nonliving_Things/Buildings/cathedral_11.jpg,Buildings,0,cathedral,0,70,70,14,289.326278318,nV_V,1,289.331145711,290.558860556,1,1,0.531382521149,291.110805983,2,0,0.0403076629154,5,6.5,32,bw,99.781930935,2019_jun_06_1538,011,256,20,5,maria,Experiment_EEG_version,20,
Living_Things,../experiment_stimuli/bw_bc_bl/Living_Things/Animals/giraffe_26.jpg,Animals,0,giraffe,0,71,71,32,292.884014313,nV_V,2,292.888825812,294.116595665,0,1,0.561443230137,294.698586495,3,0,0.0904128369875,5,7.0,32,bw,99.781930935,2019_jun_06_1538,011,256,20,5,maria,Experiment_EEG_version,20,
Nonliving_Things,../experiment_stimuli/bw_bc_bl/Nonliving_Things/Furniture/armchair_15.jpg,Furniture,0,armchair,0,72,72,2,296.52192454,V_nV,2,296.526670874,297.754502921,1,2,0.581488972995,298.356546818,1,1,1.26295983326,5,6.5,32,bw,99.781930935,2019_jun_06_1538,011,256,20,5,maria,Experiment_EEG_version,20,
Living_Things,../experiment_stimuli/bw_bc_bl/Living_Things/Birds/duck_8.jpg,Birds,0,duck,0,73,73,26,301.35242195,V_nV,1,301.357193442,302.605048191,1,1,0.681707402691,303.307305416,2,0,0.0904148742557,5,6.5,32,bw,99.781930935,2019_jun_06_1538,011,256,20,5,maria,Experiment_EEG_version,20,
Living_Things,../experiment_stimuli/bw_bc_bl/Living_Things/Animals/rhino_18.jpg,Animals,0,rhino,0,74,74,68,305.130638532,nV_V,2,305.13536281,306.373240694,0,1,0.531384836882,306.925185606,2,0,0.0703960219398,5,6.5,32,bw,99.781930935,2019_jun_06_1538,011,256,20,5,maria,Experiment_EEG_version,20,
Living_Things,../experiment_stimuli/bw_bc_bl/Living_Things/Birds/pelican_2.jpg,Birds,0,pelican,0,75,75,60,308.728456581,nV_V,2,308.733237366,309.961048902,0,1,0.501318489667,310.482897109,1,1,0.180609060451,5,7.0,32,bw,99.781930935,2019_jun_06_1538,011,256,20,5,maria,Experiment_EEG_version,20,
Nonliving_Things,../experiment_stimuli/bw_bc_bl/Nonliving_Things/Vehicles/train_18.jpg,Vehicles,0,train,0,76,76,87,312.396428509,nV_V,1,312.401220824,313.639035153,1,1,1.4934711298,315.153064883,1,1,0.220701767597,5,6.0,32,bw,99.781930935,2019_jun_06_1538,011,256,20,5,maria,Experiment_EEG_version,20,
Nonliving_Things,../experiment_stimuli/bw_bc_bl/Nonliving_Things/Furniture/chair_15.jpg,Furniture,0,chair,0,77,77,15,317.106668765,nV_V,1,317.112868962,318.369319377,1,1,0.55126927793,318.94114559,3,0,0.300885055214,5,7.0,32,bw,99.781930935,2019_jun_06_1538,011,256,20,5,maria,Experiment_EEG_version,20,
Living_Things,../experiment_stimuli/bw_bc_bl/Living_Things/Birds/toucan_16.jpg,Birds,0,toucan,0,78,78,85,320.975089371,nV_V,2,320.97982945,322.207675579,0,1,0.641638840549,322.86985263,2,0,0.110462083481,5,6.0,32,bw,99.781930935,2019_jun_06_1538,011,256,20,5,maria,Experiment_EEG_version,20,
Nonliving_Things,../experiment_stimuli/bw_bc_bl/Nonliving_Things/Kitchen_Uten/teapot_9.jpg,Kitchen_Uten,0,teapot,0,79,79,83,324.713211324,V_nV,2,324.719666322,325.945788596,1,2,1.03248036746,326.998819207,1,1,0.0403076554649,5,7.0,32,bw,99.781930935,2019_jun_06_1538,011,256,20,5,maria,Experiment_EEG_version,20,
Nonliving_Things,../experiment_stimuli/bw_bc_bl/Nonliving_Things/Buildings/church_18.jpg,Buildings,0,church,0,80,80,17,328.772056706,V_nV,2,328.776848518,330.024656809,1,2,0.721798238344,330.766997802,3,0,0.100439073052,5,6.0,32,bw,99.781930935,2019_jun_06_1538,011,256,20,5,maria,Experiment_EEG_version,20,
Living_Things,../experiment_stimuli/bw_bc_bl/Living_Things/Birds/barn-owl_16.jpg,Birds,0,barn-owl,0,81,81,4,332.600375297,nV_V,2,332.605127639,333.832943783,1,2,0.892167584039,334.745669825,1,1,0.0102375675924,5,6.0,32,bw,99.781930935,2019_jun_06_1538,011,256,20,5,maria,Experiment_EEG_version,20,
Living_Things,../experiment_stimuli/bw_bc_bl/Living_Things/Birds/raven_10.jpg,Birds,0,raven,0,82,82,67,336.488818075,V_nV,1,336.495038835,337.731412286,0,2,0.701755660586,338.453734325,1,1,0.0403305203654,5,6.0,32,bw,99.781930935,2019_jun_06_1538,011,256,20,5,maria,Experiment_EEG_version,20,
Nonliving_Things,../experiment_stimuli/bw_bc_bl/Nonliving_Things/Vehicles/bus_10.jpg,Vehicles,0,bus,0,83,83,9,340.226936249,nV_V,1,340.234756592,341.479559645,1,1,0.61156196706,342.11168137,3,0,0.100456369109,5,8.0,32,bw,99.781930935,2019_jun_06_1538,011,256,20,5,maria,Experiment_EEG_version,20,
Nonliving_Things,../experiment_stimuli/bw_bc_bl/Nonliving_Things/Musical_Inst/trumpet_3.jpg,Musical_Inst,0,trumpet,0,84,84,88,343.945019696,nV_V,1,343.94988251,345.177613307,1,1,0.661664087791,345.859834867,3,0,0.130550866947,5,6.0,32,bw,99.781930935,2019_jun_06_1538,011,256,20,5,maria,Experiment_EEG_version,20,
Nonliving_Things,../experiment_stimuli/bw_bc_bl/Nonliving_Things/Kitchen_Uten/saucepan_13.jpg,Kitchen_Uten,0,saucepan,0,85,85,71,347.723236086,V_nV,2,347.727942335,348.965834433,1,2,0.53138418356,349.517770548,1,1,0.0403065164573,5,6.0,32,bw,99.781930935,2019_jun_06_1538,011,256,20,5,maria,Experiment_EEG_version,20,
Living_Things,../experiment_stimuli/bw_bc_bl/Living_Things/Marine_creatures/lobster_22.jpg,Marine_creatures,0,lobster,0,86,86,49,351.290984326,V_nV,1,351.296035471,352.5636604,1,1,0.541406073142,353.125627588,3,0,0.120483845938,5,6.5,32,bw,99.781930935,2019_jun_06_1538,011,256,20,5,maria,Experiment_EEG_version,20,
Living_Things,../experiment_stimuli/bw_bc_bl/Living_Things/Birds/partridge_4.jpg,Birds,0,partridge,0,87,87,59,354.979002395,V_nV,1,354.983791631,356.221615982,0,2,1.7841051179,358.026286332,2,0,0.441023548599,5,6.5,32,bw,99.781930935,2019_jun_06_1538,011,256,20,5,maria,Experiment_EEG_version,20,
Nonliving_Things,../experiment_stimuli/bw_bc_bl/Nonliving_Things/Vehicles/boat_1.jpg,Vehicles,0,boat,0,88,88,7,360.200353271,V_nV,2,360.205035885,361.432935344,1,2,0.50131281279,361.964836591,1,1,0.0603570905514,5,7.0,32,bw,99.781930935,2019_jun_06_1538,011,256,20,5,maria,Experiment_EEG_version,20,
Living_Things,../experiment_stimuli/bw_bc_bl/Living_Things/Animals/tapir_23.jpg,Animals,0,tapir,0,89,89,82,363.758093428,nV_V,2,363.762798924,365.020736078,1,2,0.721790989861,365.763083702,1,1,0.0703903711401,5,6.0,32,bw,99.781930935,2019_jun_06_1538,011,256,20,5,maria,Experiment_EEG_version,20,
Living_Things,../experiment_stimuli/bw_bc_bl/Living_Things/Animals/cat_4.jpg,Animals,0,cat,0,90,90,13,367.56637347,V_nV,1,367.571144154,368.859083577,1,1,0.54140549805,369.421045363,3,0,0.0703783077188,5,6.0,32,bw,99.781930935,2019_jun_06_1538,011,256,20,5,maria,Experiment_EEG_version,20,
Nonliving_Things,../experiment_stimuli/bw_bc_bl/Nonliving_Things/Kitchen_Uten/coking-pot_21.jpg,Kitchen_Uten,0,coking-pot,0,91,91,18,371.224323654,V_nV,2,371.229006437,372.496990747,0,1,0.701750111766,373.219281147,3,0,0.0403151484206,5,6.0,32,bw,99.781930935,2019_jun_06_1538,011,256,20,5,maria,Experiment_EEG_version,20,
Nonliving_Things,../experiment_stimuli/bw_bc_bl/Nonliving_Things/Vehicles/van_9.jpg,Vehicles,0,van,0,92,92,91,374.992510688,nV_V,1,374.997213967,376.235126869,0,2,0.882147787604,377.137829768,3,0,0.120485680643,5,6.0,32,bw,99.781930935,2019_jun_06_1538,011,256,20,5,maria,Experiment_EEG_version,20,
Living_Things,../experiment_stimuli/bw_bc_bl/Living_Things/Birds/seagull_23.jpg,Birds,0,seagull,0,93,93,74,379.001229247,V_nV,1,379.00600495,380.243829008,1,1,1.09259950276,381.356997287,2,0,0.401092289481,5,6.0,32,bw,99.781930935,2019_jun_06_1538,011,256,20,5,maria,Experiment_EEG_version,20,
Living_Things,../experiment_stimuli/bw_bc_bl/Living_Things/Birds/owl_22.jpg,Birds,0,owl,0,94,94,57,383.501019829,V_nV,1,383.505763066,384.733600219,0,2,0.591355128214,385.345509876,1,1,0.0811738148332,5,7.0,32,bw,99.781930935,2019_jun_06_1538,011,256,20,5,maria,Experiment_EEG_version,20,
Nonliving_Things,../experiment_stimuli/bw_bc_bl/Nonliving_Things/Kitchen_Uten/small-saucepan_3.jpg,Kitchen_Uten,0,small-saucepan,0,95,95,77,387.158967623,V_nV,2,387.163778528,388.4115873,1,2,0.501334597822,388.933491701,1,1,0.0703845783137,5,6.0,32,bw,99.781930935,2019_jun_06_1538,011,256,20,5,maria,Experiment_EEG_version,20,
