category,probe_path,subcategory,fixation_duration,label,trials.thisRepN,trials.thisTrialN,trials.thisN,trials.thisIndex,image_onset_time,response_window,correctAns,probe_onset,discrim_resptime,response.corr,response.keys,response.rt,visible_resptime,visible.keys,visible.corr,visible.rt,probeFrames,jitter2,n_square,experiment_color,frameRate,date,session,image_size,premask_dur,probeFrames,participant,expName,postmask_dur,
Living_Things,../experiment_stimuli/bw_bc_bl/Living_Things/Marine_creatures/whale_0.jpg,Marine_creatures,0,whale,0,0,0,94,3.71625066875,V_nV,1,3.73745571077,4.99893971253,1,1,1.22289062524,6.25266057299,3,0,0.170608969871,5,6.0,32,bw,99.7836264681,2019_jun_05_1656,007,256,20,5,maria,Experiment_EEG_version,20,
Living_Things,../experiment_stimuli/bw_bc_bl/Living_Things/Insects/dragonfly_24.jpg,Insects,0,dragonfly,0,1,1,24,8.15589896636,V_nV,1,8.16100189649,9.39850077173,1,1,0.962320804596,10.3813754399,3,0,0.100440305658,5,6.0,32,bw,99.7836264681,2019_jun_05_1656,007,256,20,5,maria,Experiment_EEG_version,20,
Nonliving_Things,../experiment_stimuli/bw_bc_bl/Nonliving_Things/Kitchen_Uten/frying-pan_7.jpg,Kitchen_Uten,0,frying-pan,0,2,2,31,12.2147447923,V_nV,2,12.2196263648,13.4472995573,1,2,1.1427111607,14.610566108,1,1,0.0904114418663,5,7.5,32,bw,99.7836264681,2019_jun_05_1656,007,256,20,5,maria,Experiment_EEG_version,20,
Nonliving_Things,../experiment_stimuli/bw_bc_bl/Nonliving_Things/Vehicles/plane_6.jpg,Vehicles,0,plane,0,3,3,64,16.4338973751,V_nV,2,16.4396950286,17.6865200782,0,1,1.01244222233,18.7195201451,3,0,0.140530584846,5,6.5,32,bw,99.7836264681,2019_jun_05_1656,007,256,20,5,maria,Experiment_EEG_version,20,
Nonliving_Things,../experiment_stimuli/bw_bc_bl/Nonliving_Things/Furniture/sofa_19.jpg,Furniture,0,sofa,0,4,4,78,20.5929347137,nV_V,1,20.597725186,21.8255120046,0,2,0.761891284026,22.6079750429,1,1,0.0904351668432,5,6.0,32,bw,99.7836264681,2019_jun_05_1656,007,256,20,5,maria,Experiment_EEG_version,20,
Nonliving_Things,../experiment_stimuli/bw_bc_bl/Nonliving_Things/Buildings/cathedral_22.jpg,Buildings,0,cathedral,0,5,5,14,24.4313030317,V_nV,2,24.436187698,25.6939179152,1,2,0.68171155639,26.396189583,3,0,0.0904176901095,5,6.0,32,bw,99.7836264681,2019_jun_05_1656,007,256,20,5,maria,Experiment_EEG_version,20,
Nonliving_Things,../experiment_stimuli/bw_bc_bl/Nonliving_Things/Buildings/house_14.jpg,Buildings,0,house,0,6,6,41,28.2195058842,nV_V,1,28.2244315953,29.4520903784,1,1,1.18279609084,30.6554245134,2,0,0.110455662478,5,8.0,32,bw,99.7836264681,2019_jun_05_1656,007,256,20,5,maria,Experiment_EEG_version,20,
Living_Things,../experiment_stimuli/bw_bc_bl/Living_Things/Insects/scorpion_26.jpg,Insects,0,scorpion,0,7,7,73,32.4988128124,V_nV,1,32.5043227407,33.7313949042,0,2,0.611547967419,34.3634937014,1,1,0.0904142651707,5,6.5,32,bw,99.7836264681,2019_jun_05_1656,007,256,20,5,maria,Experiment_EEG_version,20,
Nonliving_Things,../experiment_stimuli/bw_bc_bl/Nonliving_Things/Vehicles/ship_19.jpg,Vehicles,0,ship,0,8,8,76,36.1868253476,nV_V,1,36.191745529,37.4394507692,1,1,1.2729984941,38.7329968377,2,0,0.110453451984,5,6.0,32,bw,99.7836264681,2019_jun_05_1656,007,256,20,5,maria,Experiment_EEG_version,20,
Nonliving_Things,../experiment_stimuli/bw_bc_bl/Nonliving_Things/Vehicles/boat_10.jpg,Vehicles,0,boat,0,9,9,7,40.5763670169,nV_V,1,40.5811986467,41.8189742616,1,1,3.6782217361,45.5177352899,2,0,0.120479184669,5,6.0,32,bw,99.7836264681,2019_jun_05_1656,007,256,20,5,maria,Experiment_EEG_version,20,
Living_Things,../experiment_stimuli/bw_bc_bl/Living_Things/Birds/hen_2.jpg,Birds,0,hen,0,10,10,38,47.3711415851,V_nV,1,47.37609366,48.6037128232,0,2,1.00241707265,49.6266936581,1,1,0.070372199174,5,7.5,32,bw,99.7836264681,2019_jun_05_1656,007,256,20,5,maria,Experiment_EEG_version,20,
Living_Things,../experiment_stimuli/bw_bc_bl/Living_Things/Birds/ostrich_9.jpg,Birds,0,ostrich,0,11,11,56,51.4299840801,V_nV,1,51.4348221496,52.6825958588,0,2,0.531396329403,53.2345470404,1,1,0.120478274766,5,6.0,32,bw,99.7836264681,2019_jun_05_1656,007,256,20,5,maria,Experiment_EEG_version,20,
Living_Things,../experiment_stimuli/bw_bc_bl/Living_Things/Insects/ladybird_7.jpg,Insects,0,ladybird,0,12,12,45,55.0879338132,V_nV,1,55.0927938297,56.3605756848,0,2,0.902204477694,57.283339187,3,0,0.170596315991,5,6.0,32,bw,99.7836264681,2019_jun_05_1656,007,256,20,5,maria,Experiment_EEG_version,20,
Living_Things,../experiment_stimuli/bw_bc_bl/Living_Things/Animals/lioness_20.jpg,Animals,0,lioness,0,13,13,48,59.1868198514,nV_V,2,59.1924074218,60.429435085,1,2,0.912205405533,61.3621665239,1,1,0.0703741577454,5,6.0,32,bw,99.7836264681,2019_jun_05_1656,007,256,20,5,maria,Experiment_EEG_version,20,
Nonliving_Things,../experiment_stimuli/bw_bc_bl/Nonliving_Things/Furniture/couch_3.jpg,Furniture,0,couch,0,14,14,19,63.1654670588,nV_V,1,63.1703624814,64.4281308744,1,1,2.19500683108,66.6436646068,1,1,0.180607176386,5,6.5,32,bw,99.7836264681,2019_jun_05_1656,007,256,20,5,maria,Experiment_EEG_version,20,
Living_Things,../experiment_stimuli/bw_bc_bl/Living_Things/Animals/lynx_19.jpg,Animals,0,lynx,0,15,15,50,68.5571941836,V_nV,1,68.5620751996,69.8499093014,1,1,0.681708372198,70.5521709882,3,0,0.120487676933,5,7.0,32,bw,99.7836264681,2019_jun_05_1656,007,256,20,5,maria,Experiment_EEG_version,20,
Living_Things,../experiment_stimuli/bw_bc_bl/Living_Things/Marine_creatures/narwhal_10.jpg,Marine_creatures,0,narwhal,0,16,16,55,72.4055563021,V_nV,1,72.4104205817,73.6681995424,1,1,0.691727619618,74.3804944018,3,0,0.120480807964,5,6.0,32,bw,99.7836264681,2019_jun_05_1656,007,256,20,5,maria,Experiment_EEG_version,20,
Nonliving_Things,../experiment_stimuli/bw_bc_bl/Nonliving_Things/Musical_Inst/saxophone_9.jpg,Musical_Inst,0,saxophone,0,17,17,72,76.2338800086,nV_V,1,76.2388818804,77.466455014,0,2,0.561448320281,78.0484640663,1,1,0.0703814052977,5,8.0,32,bw,99.7836264681,2019_jun_05_1656,007,256,20,5,maria,Experiment_EEG_version,20,
Nonliving_Things,../experiment_stimuli/bw_bc_bl/Nonliving_Things/Buildings/church_26.jpg,Buildings,0,church,0,18,18,17,79.8517381805,nV_V,1,79.8580553262,81.104368763,1,1,0.501308827661,81.6262218156,3,0,0.0904119159095,5,6.5,32,bw,99.7836264681,2019_jun_05_1656,007,256,20,5,maria,Experiment_EEG_version,20,
Nonliving_Things,../experiment_stimuli/bw_bc_bl/Nonliving_Things/Kitchen_Uten/fondue_19.jpg,Kitchen_Uten,0,fondue,0,19,19,30,83.4495662255,nV_V,1,83.4559590695,84.6821430279,1,1,0.842057068367,85.5447478434,2,0,0.110458583105,5,6.0,32,bw,99.7836264681,2019_jun_05_1656,007,256,20,5,maria,Experiment_EEG_version,20,
Nonliving_Things,../experiment_stimuli/bw_bc_bl/Nonliving_Things/Furniture/chair_19.jpg,Furniture,0,chair,0,20,20,15,87.388120011,V_nV,2,87.393892413,88.6207066365,0,1,0.761884190142,89.4031465589,1,1,0.170580511913,5,7.5,32,bw,99.7836264681,2019_jun_05_1656,007,256,20,5,maria,Experiment_EEG_version,20,
Living_Things,../experiment_stimuli/bw_bc_bl/Living_Things/Birds/kiwi_16.jpg,Birds,0,kiwi,0,21,21,44,91.3066484407,nV_V,2,91.3116421583,92.5692870943,1,2,2.33531234786,94.925186377,3,0,0.150554708671,5,7.0,32,bw,99.7836264681,2019_jun_05_1656,007,256,20,5,maria,Experiment_EEG_version,20,
Nonliving_Things,../experiment_stimuli/bw_bc_bl/Nonliving_Things/Buildings/castle_20.jpg,Buildings,0,castle,0,22,22,12,96.8085997836,V_nV,2,96.8150558975,98.0512061906,0,1,1.16275798669,99.2345198379,2,0,0.180637503508,5,7.5,32,bw,99.7836264681,2019_jun_05_1656,007,256,20,5,maria,Experiment_EEG_version,20,
Nonliving_Things,../experiment_stimuli/bw_bc_bl/Nonliving_Things/Musical_Inst/guitar_18.jpg,Musical_Inst,0,guitar,0,23,23,36,101.148035306,nV_V,1,101.152959558,102.380614743,0,2,0.491308065131,102.89250392,1,1,0.0703706163913,5,7.0,32,bw,99.7836264681,2019_jun_05_1656,007,256,20,5,maria,Experiment_EEG_version,20,
Nonliving_Things,../experiment_stimuli/bw_bc_bl/Nonliving_Things/Vehicles/van_7.jpg,Vehicles,0,van,0,24,24,91,104.695744553,nV_V,1,104.700732297,105.938350272,1,1,1.46340857167,107.422329437,1,1,0.180606560316,5,6.0,32,bw,99.7836264681,2019_jun_05_1656,007,256,20,5,maria,Experiment_EEG_version,20,
Living_Things,../experiment_stimuli/bw_bc_bl/Living_Things/Birds/toucan_23.jpg,Birds,0,toucan,0,25,25,85,109.335850039,V_nV,1,109.341686035,110.598475179,0,2,1.00241664751,111.621452366,1,1,0.110471196007,5,6.0,32,bw,99.7836264681,2019_jun_05_1656,007,256,20,5,maria,Experiment_EEG_version,20,
Nonliving_Things,../experiment_stimuli/bw_bc_bl/Nonliving_Things/Furniture/rocking-chair_11.jpg,Furniture,0,rocking-chair,0,26,26,69,113.464806906,nV_V,1,113.46979435,114.747494852,1,1,0.581510615535,115.359595278,3,0,0.11030871328,5,7.5,32,bw,99.7836264681,2019_jun_05_1656,007,256,20,5,maria,Experiment_EEG_version,20,
Living_Things,../experiment_stimuli/bw_bc_bl/Living_Things/Birds/magpie_3.jpg,Birds,0,magpie,0,27,27,51,117.202935525,V_nV,1,117.207904668,118.455559413,1,1,1.08257971052,119.558688915,1,1,0.220696278848,5,6.5,32,bw,99.7836264681,2019_jun_05_1656,007,256,20,5,maria,Experiment_EEG_version,20,
Nonliving_Things,../experiment_stimuli/bw_bc_bl/Nonliving_Things/Furniture/filling-cabinet_7.jpg,Furniture,0,filling-cabinet,0,28,28,29,121.51230668,nV_V,1,121.517185926,122.774945959,1,1,0.551523165312,123.347039318,3,0,0.150543389376,5,6.5,32,bw,99.7836264681,2019_jun_05_1656,007,256,20,5,maria,Experiment_EEG_version,20,
Nonliving_Things,../experiment_stimuli/bw_bc_bl/Nonliving_Things/Kitchen_Uten/small-saucepan_1.jpg,Kitchen_Uten,0,small-saucepan,0,29,29,77,125.230386409,nV_V,1,125.236185337,126.472986158,1,1,2.50572103914,128.999253933,2,0,0.150545114651,5,6.0,32,bw,99.7836264681,2019_jun_05_1656,007,256,20,5,maria,Experiment_EEG_version,20,
Nonliving_Things,../experiment_stimuli/bw_bc_bl/Nonliving_Things/Buildings/mill_18.jpg,Buildings,0,mill,0,30,30,53,130.882703159,V_nV,2,130.888582022,132.115253466,1,2,1.21269084653,133.348495161,1,1,0.0503285084851,5,6.5,32,bw,99.7836264681,2019_jun_05_1656,007,256,20,5,maria,Experiment_EEG_version,20,
Nonliving_Things,../experiment_stimuli/bw_bc_bl/Nonliving_Things/Furniture/armchair_5.jpg,Furniture,0,armchair,0,31,31,2,135.131922259,V_nV,2,135.137558287,136.374511083,1,2,0.431165528018,136.826208892,1,1,0.090438012965,5,7.5,32,bw,99.7836264681,2019_jun_05_1656,007,256,20,5,maria,Experiment_EEG_version,20,
Living_Things,../experiment_stimuli/bw_bc_bl/Living_Things/Marine_creatures/shark_17.jpg,Marine_creatures,0,shark,0,32,32,75,138.649565618,nV_V,2,138.655378474,139.902180982,0,1,0.781926801428,140.704663689,1,1,0.150545430835,5,7.5,32,bw,99.7836264681,2019_jun_05_1656,007,256,20,5,maria,Experiment_EEG_version,20,
Nonliving_Things,../experiment_stimuli/bw_bc_bl/Nonliving_Things/Vehicles/tractor_3.jpg,Vehicles,0,tractor,0,33,33,86,142.588123911,nV_V,1,142.593014712,143.860786474,1,1,0.571483044885,144.452841081,3,0,0.120482684579,5,7.0,32,bw,99.7836264681,2019_jun_05_1656,007,256,20,5,maria,Experiment_EEG_version,20,
Nonliving_Things,../experiment_stimuli/bw_bc_bl/Nonliving_Things/Musical_Inst/violin_4.jpg,Musical_Inst,0,violin,0,34,34,92,146.306202358,V_nV,2,146.311148719,147.558824362,1,2,0.982360822149,148.561739574,3,0,0.110305995215,5,6.0,32,bw,99.7836264681,2019_jun_05_1656,007,256,20,5,maria,Experiment_EEG_version,20,
Living_Things,../experiment_stimuli/bw_bc_bl/Living_Things/Birds/duck_24.jpg,Birds,0,duck,0,35,35,26,150.405112782,V_nV,1,150.409932127,151.637686032,0,2,1.39309265791,153.051343644,2,0,0.190632961225,5,7.0,32,bw,99.7836264681,2019_jun_05_1656,007,256,20,5,maria,Experiment_EEG_version,20,
Nonliving_Things,../experiment_stimuli/bw_bc_bl/Nonliving_Things/Buildings/granary_9.jpg,Buildings,0,granary,0,36,36,35,154.97504403,V_nV,2,154.9801036,156.207621656,1,2,1.13270904124,157.360890887,1,1,0.0703726238571,5,7.5,32,bw,99.7836264681,2019_jun_05_1656,007,256,20,5,maria,Experiment_EEG_version,20,
Nonliving_Things,../experiment_stimuli/bw_bc_bl/Nonliving_Things/Vehicles/bus_8.jpg,Vehicles,0,bus,0,37,37,9,159.16414678,V_nV,2,159.169146355,160.426810095,1,2,1.22288352391,161.67022919,3,0,0.0603576921858,5,6.0,32,bw,99.7836264681,2019_jun_05_1656,007,256,20,5,maria,Experiment_EEG_version,20,
Living_Things,../experiment_stimuli/bw_bc_bl/Living_Things/Marine_creatures/sperm-whale_12.jpg,Marine_creatures,0,sperm-whale,0,38,38,80,163.463494319,nV_V,2,163.468482872,164.706097794,0,1,0.651645156089,165.378295814,3,0,0.0902618840337,5,6.5,32,bw,99.7836264681,2019_jun_05_1656,007,256,20,5,maria,Experiment_EEG_version,20,
Living_Things,../experiment_stimuli/bw_bc_bl/Living_Things/Marine_creatures/manatee_22.jpg,Marine_creatures,0,manatee,0,39,39,52,167.201625946,nV_V,2,167.206580393,168.434204034,0,1,0.972336860374,169.427107024,2,0,0.130510018207,5,6.0,32,bw,99.7836264681,2019_jun_05_1656,007,256,20,5,maria,Experiment_EEG_version,20,
Nonliving_Things,../experiment_stimuli/bw_bc_bl/Nonliving_Things/Musical_Inst/trumpet_12.jpg,Musical_Inst,0,trumpet,0,40,40,88,171.290509481,nV_V,1,171.29551242,172.523089821,1,1,3.56798023218,176.111626183,2,0,0.100440659095,5,6.0,32,bw,99.7836264681,2019_jun_05_1656,007,256,20,5,maria,Experiment_EEG_version,20,
Living_Things,../experiment_stimuli/bw_bc_bl/Living_Things/Animals/cheetah_1.jpg,Animals,0,cheetah,0,41,41,16,177.944984858,V_nV,1,177.94995155,179.177559526,0,2,0.601529832464,179.799643504,1,1,0.0503403092735,5,6.0,32,bw,99.7836264681,2019_jun_05_1656,007,256,20,5,maria,Experiment_EEG_version,20,
Living_Things,../experiment_stimuli/bw_bc_bl/Living_Things/Animals/elephant_13.jpg,Animals,0,elephant,0,42,42,27,181.582885104,nV_V,2,181.587839845,182.835517417,1,2,0.691731559578,183.547787855,3,0,0.0703741577454,5,6.5,32,bw,99.7836264681,2019_jun_05_1656,007,256,20,5,maria,Experiment_EEG_version,20,
Nonliving_Things,../experiment_stimuli/bw_bc_bl/Nonliving_Things/Furniture/lectern_12.jpg,Furniture,0,lectern,0,43,43,47,185.351091145,nV_V,1,185.356970738,186.583655565,0,2,0.852084950544,187.456305706,1,1,0.100436298177,5,6.5,32,bw,99.7836264681,2019_jun_05_1656,007,256,20,5,maria,Experiment_EEG_version,20,
Living_Things,../experiment_stimuli/bw_bc_bl/Living_Things/Birds/rooster_1.jpg,Birds,0,rooster,0,44,44,70,189.289646063,nV_V,2,189.294555492,190.552292942,1,2,0.521359108854,191.094190373,2,0,0.200652389321,5,6.0,32,bw,99.7836264681,2019_jun_05_1656,007,256,20,5,maria,Experiment_EEG_version,20,
Nonliving_Things,../experiment_stimuli/bw_bc_bl/Nonliving_Things/Vehicles/motorbike_0.jpg,Vehicles,0,motorbike,0,45,45,54,193.027762054,nV_V,1,193.032790301,194.28038752,1,1,0.511349906214,194.812289064,3,0,0.100456606597,5,6.5,32,bw,99.7836264681,2019_jun_05_1656,007,256,20,5,maria,Experiment_EEG_version,20,
Living_Things,../experiment_stimuli/bw_bc_bl/Living_Things/Marine_creatures/lobster_7.jpg,Marine_creatures,0,lobster,0,46,46,49,196.645633589,V_nV,1,196.650730893,197.878210223,0,2,1.60371566378,199.502482953,1,1,0.0703771798871,5,6.0,32,bw,99.7836264681,2019_jun_05_1656,007,256,20,5,maria,Experiment_EEG_version,20,
Living_Things,../experiment_stimuli/bw_bc_bl/Living_Things/Birds/penguin_15.jpg,Birds,0,penguin,0,47,47,61,201.305761552,nV_V,2,201.310677275,202.54836058,1,2,0.771901602857,203.340810001,2,0,0.200655119028,5,6.0,32,bw,99.7836264681,2019_jun_05_1656,007,256,20,5,maria,Experiment_EEG_version,20,
Nonliving_Things,../experiment_stimuli/bw_bc_bl/Nonliving_Things/Vehicles/train_26.jpg,Vehicles,0,train,0,48,48,87,205.274384983,nV_V,1,205.280301157,206.506972691,1,1,0.6616625241,207.189197624,1,1,0.230737728998,5,6.0,32,bw,99.7836264681,2019_jun_05_1656,007,256,20,5,maria,Experiment_EEG_version,20,
Nonliving_Things,../experiment_stimuli/bw_bc_bl/Nonliving_Things/Furniture/bed_17.jpg,Furniture,0,bed,0,49,49,5,209.152822588,nV_V,1,209.1577526,210.405441754,1,1,1.01244661305,211.438442948,2,0,0.150560279842,5,6.5,32,bw,99.7836264681,2019_jun_05_1656,007,256,20,5,maria,Experiment_EEG_version,20,
Nonliving_Things,../experiment_stimuli/bw_bc_bl/Nonliving_Things/Furniture/bookcase_12.jpg,Furniture,0,bookcase,0,50,50,8,213.321878452,nV_V,1,213.328006173,214.564485344,1,1,0.681709469762,215.266737738,2,0,0.120482240804,5,6.0,32,bw,99.7836264681,2019_jun_05_1656,007,256,20,5,maria,Experiment_EEG_version,20,
Nonliving_Things,../experiment_stimuli/bw_bc_bl/Nonliving_Things/Musical_Inst/drum_25.jpg,Musical_Inst,0,drum,0,51,51,25,217.120137525,V_nV,2,217.126182687,218.352718775,1,2,1.00242046686,219.375709365,1,1,0.0904314117506,5,6.0,32,bw,99.7836264681,2019_jun_05_1656,007,256,20,5,maria,Experiment_EEG_version,20,
Living_Things,../experiment_stimuli/bw_bc_bl/Living_Things/Animals/horse_18.jpg,Animals,0,horse,0,52,52,40,221.199007674,nV_V,2,221.20394973,222.451628227,0,1,0.461246552411,222.93342877,2,0,0.0804084609263,5,6.5,32,bw,99.7836264681,2019_jun_05_1656,007,256,20,5,maria,Experiment_EEG_version,20,
Nonliving_Things,../experiment_stimuli/bw_bc_bl/Nonliving_Things/Musical_Inst/tuba_5.jpg,Musical_Inst,0,tuba,0,53,53,89,224.746718316,nV_V,1,224.75172768,225.989323911,1,1,0.491298332345,226.501168115,3,0,0.0503298547119,5,6.5,32,bw,99.7836264681,2019_jun_05_1656,007,256,20,5,maria,Experiment_EEG_version,20,
Nonliving_Things,../experiment_stimuli/bw_bc_bl/Nonliving_Things/Musical_Inst/piano__5.jpg,Musical_Inst,0,piano,0,54,54,62,228.284407294,nV_V,1,228.289312667,229.516989837,1,1,0.992408317514,230.529964345,2,0,0.0703734583221,5,6.5,32,bw,99.7836264681,2019_jun_05_1656,007,256,20,5,maria,Experiment_EEG_version,20,
Nonliving_Things,../experiment_stimuli/bw_bc_bl/Nonliving_Things/Furniture/lamp_17.jpg,Furniture,0,lamp,0,55,55,46,232.333209993,nV_V,1,232.338042856,233.565793694,1,1,0.611562230624,234.197911983,1,1,0.19048303552,5,7.0,32,bw,99.7836264681,2019_jun_05_1656,007,256,20,5,maria,Experiment_EEG_version,20,
Living_Things,../experiment_stimuli/bw_bc_bl/Living_Things/Birds/barn-owl_1.jpg,Birds,0,barn-owl,0,56,56,4,236.12144848,nV_V,2,236.127428131,237.384089431,1,2,1.32312357333,238.727785417,2,0,0.200671291444,5,6.5,32,bw,99.7836264681,2019_jun_05_1656,007,256,20,5,maria,Experiment_EEG_version,20,
Living_Things,../experiment_stimuli/bw_bc_bl/Living_Things/Marine_creatures/killer-whale_10.jpg,Marine_creatures,0,killer-whale,0,57,57,43,240.66131765,V_nV,1,240.666235211,241.913933933,0,2,2.64581600623,244.580318728,1,1,0.100439189002,5,6.0,32,bw,99.7836264681,2019_jun_05_1656,007,256,20,5,maria,Experiment_EEG_version,20,
Living_Things,../experiment_stimuli/bw_bc_bl/Living_Things/Animals/hippopotamus_4.jpg,Animals,0,hippopotamus,0,58,58,39,246.413828311,nV_V,2,246.418660637,247.676467773,1,2,1.1928212964,248.889857313,3,0,0.100460835733,5,6.0,32,bw,99.7836264681,2019_jun_05_1656,007,256,20,5,maria,Experiment_EEG_version,20,
Living_Things,../experiment_stimuli/bw_bc_bl/Living_Things/Marine_creatures/crab_10.jpg,Marine_creatures,0,crab,0,59,59,21,250.723187057,nV_V,2,250.728190526,251.965791385,1,2,0.81199021684,252.798343759,2,0,0.180613180157,5,6.0,32,bw,99.7836264681,2019_jun_05_1656,007,256,20,5,maria,Experiment_EEG_version,20,
Living_Things,../experiment_stimuli/bw_bc_bl/Living_Things/Animals/cow_14.jpg,Animals,0,cow,0,60,60,20,254.711859632,nV_V,2,254.716753096,255.944437078,1,2,0.832034670282,256.79703769,1,1,0.0703929052688,5,6.0,32,bw,99.7836264681,2019_jun_05_1656,007,256,20,5,maria,Experiment_EEG_version,20,
Living_Things,../experiment_stimuli/bw_bc_bl/Living_Things/Birds/hummingbird_3.jpg,Birds,0,hummingbird,0,61,61,42,258.600312154,V_nV,1,258.606620751,259.842921118,1,1,0.972434279975,260.835895055,1,1,0.190647972748,5,6.0,32,bw,99.7836264681,2019_jun_05_1656,007,256,20,5,maria,Experiment_EEG_version,20,
Living_Things,../experiment_stimuli/bw_bc_bl/Living_Things/Birds/raven_1.jpg,Birds,0,raven,0,62,62,67,262.759348771,nV_V,2,262.764210152,264.011977072,1,2,1.07256400399,265.10509574,1,1,0.0904208966531,5,8.0,32,bw,99.7836264681,2019_jun_05_1656,007,256,20,5,maria,Experiment_EEG_version,20,
Nonliving_Things,../experiment_stimuli/bw_bc_bl/Nonliving_Things/Kitchen_Uten/coking-pot_14.jpg,Kitchen_Uten,0,coking-pot,0,63,63,18,266.928419661,V_nV,2,266.933281727,268.221127366,1,2,1.24292956386,269.484613789,3,0,0.0904158405028,5,8.0,32,bw,99.7836264681,2019_jun_05_1656,007,256,20,5,maria,Experiment_EEG_version,20,
Living_Things,../experiment_stimuli/bw_bc_bl/Living_Things/Birds/pigeon_6.jpg,Birds,0,pigeon,0,64,64,63,271.307930079,nV_V,2,271.314142573,272.5605632,1,2,4.13906916929,276.720184221,3,0,0.100436008535,5,7.5,32,bw,99.7836264681,2019_jun_05_1656,007,256,20,5,maria,Experiment_EEG_version,20,
Living_Things,../experiment_stimuli/bw_bc_bl/Living_Things/Animals/tiger_1.jpg,Animals,0,tiger,0,65,65,84,278.553683572,V_nV,1,278.558534923,279.786261942,0,2,0.63160062395,280.448438361,1,1,0.120489078574,5,7.5,32,bw,99.7836264681,2019_jun_05_1656,007,256,20,5,maria,Experiment_EEG_version,20,
Living_Things,../experiment_stimuli/bw_bc_bl/Living_Things/Insects/butterfly_12.jpg,Insects,0,butterfly,0,66,66,10,282.301832385,V_nV,1,282.306633343,283.554457359,1,1,0.45121031208,284.026213679,3,0,0.0904264911078,5,6.0,32,bw,99.7836264681,2019_jun_05_1656,007,256,20,5,maria,Experiment_EEG_version,20,
Nonliving_Things,../experiment_stimuli/bw_bc_bl/Nonliving_Things/Furniture/table_12.jpg,Furniture,0,table,0,67,67,81,285.849554908,nV_V,1,285.854480957,287.092147732,1,1,2.72615317907,289.838854384,2,0,0.451210673433,5,6.0,32,bw,99.7836264681,2019_jun_05_1656,007,256,20,5,maria,Experiment_EEG_version,20,
Living_Things,../experiment_stimuli/bw_bc_bl/Living_Things/Birds/sparrow_15.jpg,Birds,0,sparrow,0,68,68,79,292.022966694,nV_V,2,292.027832808,293.255544008,0,1,0.771745413542,294.047856728,1,1,0.160576260649,5,7.5,32,bw,99.7836264681,2019_jun_05_1656,007,256,20,5,maria,Experiment_EEG_version,20,
Living_Things,../experiment_stimuli/bw_bc_bl/Living_Things/Birds/pelican_1.jpg,Birds,0,pelican,0,69,69,60,295.941483267,V_nV,1,295.946359253,297.2041288,1,1,0.551420534961,297.776106285,3,0,0.110474970192,5,6.5,32,bw,99.7836264681,2019_jun_05_1656,007,256,20,5,maria,Experiment_EEG_version,20,
Living_Things,../experiment_stimuli/bw_bc_bl/Living_Things/Marine_creatures/pomfret_0.jpg,Marine_creatures,0,pomfret,0,70,70,65,299.619478946,nV_V,2,299.624376586,300.86208745,1,2,1.63362130709,302.516237873,1,1,0.010248334147,5,6.0,32,bw,99.7836264681,2019_jun_05_1656,007,256,20,5,maria,Experiment_EEG_version,20,
Nonliving_Things,../experiment_stimuli/bw_bc_bl/Nonliving_Things/Furniture/Chest-of-drawers_11.jpg,Furniture,0,Chest-of-drawers,0,71,71,0,304.259563669,nV_V,1,304.2657579,305.522208203,1,1,0.421144487336,305.963893862,3,0,0.0703728944063,5,7.5,32,bw,99.7836264681,2019_jun_05_1656,007,256,20,5,maria,Experiment_EEG_version,20,
Nonliving_Things,../experiment_stimuli/bw_bc_bl/Nonliving_Things/Furniture/wardrobe_4.jpg,Furniture,0,wardrobe,0,72,72,93,307.767187893,V_nV,2,307.77187074,308.999776147,1,2,1.33313177573,310.353459572,1,1,0.0603598314337,5,7.0,32,bw,99.7836264681,2019_jun_05_1656,007,256,20,5,maria,Experiment_EEG_version,20,
Living_Things,../experiment_stimuli/bw_bc_bl/Living_Things/Animals/armadillo_22.jpg,Animals,0,armadillo,0,73,73,1,312.146711059,nV_V,2,312.151611801,313.409357394,0,1,1.5335660968,314.963497873,1,1,0.170585338958,5,6.0,32,bw,99.7836264681,2019_jun_05_1656,007,256,20,5,maria,Experiment_EEG_version,20,
Nonliving_Things,../experiment_stimuli/bw_bc_bl/Nonliving_Things/Kitchen_Uten/cup_3.jpg,Kitchen_Uten,0,cup,0,74,74,22,316.866976432,V_nV,2,316.871828993,318.149660829,1,2,0.701760130003,318.871975078,3,0,0.100484252442,5,6.5,32,bw,99.7836264681,2019_jun_05_1656,007,256,20,5,maria,Experiment_EEG_version,20,
Living_Things,../experiment_stimuli/bw_bc_bl/Living_Things/Animals/giraffe_8.jpg,Animals,0,giraffe,0,75,75,32,320.705316104,V_nV,1,320.71016144,321.967964776,1,1,0.461231356952,322.449749,3,0,0.100435719825,5,6.0,32,bw,99.7836264681,2019_jun_05_1656,007,256,20,5,maria,Experiment_EEG_version,20,
Living_Things,../experiment_stimuli/bw_bc_bl/Living_Things/Birds/goldfinch_4.jpg,Birds,0,goldfinch,0,76,76,33,324.283096375,V_nV,1,324.287883246,325.515673757,1,1,0.711770610884,326.247985303,1,1,0.18062919518,5,6.0,32,bw,99.7836264681,2019_jun_05_1656,007,256,20,5,maria,Experiment_EEG_version,20,
Living_Things,../experiment_stimuli/bw_bc_bl/Living_Things/Birds/owl_12.jpg,Birds,0,owl,0,77,77,57,328.161521673,V_nV,1,328.166344002,329.414150297,1,1,0.731837251689,330.166537292,2,0,0.110311375,5,6.5,32,bw,99.7836264681,2019_jun_05_1656,007,256,20,5,maria,Experiment_EEG_version,20,
Living_Things,../experiment_stimuli/bw_bc_bl/Living_Things/Animals/tapir_9.jpg,Animals,0,tapir,0,78,78,82,332.009894652,nV_V,2,332.014886024,333.26251475,1,2,0.621582237072,333.904643404,1,1,0.09041991923,5,6.0,32,bw,99.7836264681,2019_jun_05_1656,007,256,20,5,maria,Experiment_EEG_version,20,
Nonliving_Things,../experiment_stimuli/bw_bc_bl/Nonliving_Things/Vehicles/car_13.jpg,Vehicles,0,car,0,79,79,11,335.727971768,nV_V,1,335.732919178,336.990621388,1,1,0.501315910835,337.512484148,3,0,0.100485876668,5,8.0,32,bw,99.7836264681,2019_jun_05_1656,007,256,20,5,maria,Experiment_EEG_version,20,
Nonliving_Things,../experiment_stimuli/bw_bc_bl/Nonliving_Things/Tools/axe_17.jpg,Tools,0,axe,0,80,80,3,339.345858034,V_nV,2,339.353624208,340.588441058,1,2,0.631600570865,341.240599394,3,0,0.110461338889,5,6.5,32,bw,99.7836264681,2019_jun_05_1656,007,256,20,5,maria,Experiment_EEG_version,20,
Nonliving_Things,../experiment_stimuli/bw_bc_bl/Nonliving_Things/Kitchen_Uten/teapot_20.jpg,Kitchen_Uten,0,teapot,0,81,81,83,343.083976539,nV_V,1,343.088841225,344.316549395,1,1,0.781925846357,345.119011759,2,0,0.120503977407,5,6.0,32,bw,99.7836264681,2019_jun_05_1656,007,256,20,5,maria,Experiment_EEG_version,20,
Living_Things,../experiment_stimuli/bw_bc_bl/Living_Things/Animals/turtle_2.jpg,Animals,0,turtle,0,82,82,90,346.972415283,nV_V,2,346.977238192,348.215023115,0,1,0.601536517031,348.837128875,2,0,0.140572974924,5,7.5,32,bw,99.7836264681,2019_jun_05_1656,007,256,20,5,maria,Experiment_EEG_version,20,
Living_Things,../experiment_stimuli/bw_bc_bl/Living_Things/Birds/seagull_17.jpg,Birds,0,seagull,0,83,83,74,350.710539605,nV_V,2,350.716903536,351.94312602,0,1,0.59151454363,352.555183725,2,0,0.130558450241,5,6.5,32,bw,99.7836264681,2019_jun_05_1656,007,256,20,5,maria,Experiment_EEG_version,20,
Nonliving_Things,../experiment_stimuli/bw_bc_bl/Nonliving_Things/Furniture/bedside-table_14.jpg,Furniture,0,bedside-table,0,84,84,6,354.418630597,nV_V,1,354.424976946,355.651187472,1,1,1.19291331433,356.864643537,2,0,0.140544137452,5,6.5,32,bw,99.7836264681,2019_jun_05_1656,007,256,20,5,maria,Experiment_EEG_version,20,
Nonliving_Things,../experiment_stimuli/bw_bc_bl/Nonliving_Things/Kitchen_Uten/pot_6.jpg,Kitchen_Uten,0,pot,0,85,85,66,358.737996437,V_nV,2,358.742812702,359.970574754,1,2,0.691742142197,360.682872402,1,1,0.0603483496234,5,6.0,32,bw,99.7836264681,2019_jun_05_1656,007,256,20,5,maria,Experiment_EEG_version,20,
Living_Things,../experiment_stimuli/bw_bc_bl/Living_Things/Birds/partridge_15.jpg,Birds,0,partridge,0,86,86,59,362.476118514,nV_V,2,362.481043496,363.718724454,0,1,0.942269343883,364.681548181,2,0,0.0703738834709,5,6.0,32,bw,99.7836264681,2019_jun_05_1656,007,256,20,5,maria,Experiment_EEG_version,20,
Nonliving_Things,../experiment_stimuli/bw_bc_bl/Nonliving_Things/Buildings/factory_17.jpg,Buildings,0,factory,0,87,87,28,366.484845734,V_nV,2,366.489735506,367.727440228,1,2,0.531384464819,368.279387218,1,1,0.0503324181773,5,6.0,32,bw,99.7836264681,2019_jun_05_1656,007,256,20,5,maria,Experiment_EEG_version,20,
Living_Things,../experiment_stimuli/bw_bc_bl/Living_Things/Animals/zebra_5.jpg,Animals,0,zebra,0,88,88,95,370.062611228,V_nV,1,370.067419027,371.325254905,1,1,0.942276877817,372.288088239,3,0,0.120503342245,5,6.5,32,bw,99.7836264681,2019_jun_05_1656,007,256,20,5,maria,Experiment_EEG_version,20,
Nonliving_Things,../experiment_stimuli/bw_bc_bl/Nonliving_Things/Tools/hammer_25.jpg,Tools,0,hammer,0,89,89,37,374.141481749,V_nV,2,374.146287341,375.384081378,1,2,0.681712838355,376.08633923,1,1,0.0603500190191,5,6.0,32,bw,99.7836264681,2019_jun_05_1656,007,256,20,5,maria,Experiment_EEG_version,20,
Nonliving_Things,../experiment_stimuli/bw_bc_bl/Nonliving_Things/Buildings/palace_2.jpg,Buildings,0,palace,0,90,90,58,377.879606085,V_nV,2,377.884467203,379.142250871,0,1,0.411118750926,379.573927467,3,0,0.0703692892566,5,7.0,32,bw,99.7836264681,2019_jun_05_1656,007,256,20,5,maria,Experiment_EEG_version,20,
Living_Things,../experiment_stimuli/bw_bc_bl/Living_Things/Animals/cat_17.jpg,Animals,0,cat,0,91,91,13,381.377211506,V_nV,1,381.382157589,382.609794226,0,2,0.501322515775,383.131667864,1,1,0.0603716541082,5,6.0,32,bw,99.7836264681,2019_jun_05_1656,007,256,20,5,maria,Experiment_EEG_version,20,
Nonliving_Things,../experiment_stimuli/bw_bc_bl/Nonliving_Things/Kitchen_Uten/saucepan_11.jpg,Kitchen_Uten,0,saucepan,0,92,92,71,384.93494664,V_nV,2,384.939631701,386.177547953,0,1,0.421141058672,386.619255548,3,0,0.12048148131,5,6.0,32,bw,99.7836264681,2019_jun_05_1656,007,256,20,5,maria,Experiment_EEG_version,20,
Living_Things,../experiment_stimuli/bw_bc_bl/Living_Things/Birds/goose_5.jpg,Birds,0,goose,0,93,93,34,388.472631565,V_nV,1,388.477468071,389.705216044,1,1,1.16275402438,390.888517267,1,1,0.210672726855,5,6.0,32,bw,99.7836264681,2019_jun_05_1656,007,256,20,5,maria,Experiment_EEG_version,20,
Living_Things,../experiment_stimuli/bw_bc_bl/Living_Things/Marine_creatures/dolphin_7.jpg,Marine_creatures,0,dolphin,0,94,94,23,392.842133826,V_nV,1,392.846957726,394.114808915,0,2,1.71395754348,395.849308161,1,1,0.0503287529573,5,6.0,32,bw,99.7836264681,2019_jun_05_1656,007,256,20,5,maria,Experiment_EEG_version,20,
Living_Things,../experiment_stimuli/bw_bc_bl/Living_Things/Animals/rhino_22.jpg,Animals,0,rhino,0,95,95,68,397.642579775,nV_V,2,397.649184079,398.945302426,1,2,1.01243813941,399.978301046,3,0,0.260835640598,5,6.5,32,bw,99.7836264681,2019_jun_05_1656,007,256,20,5,maria,Experiment_EEG_version,20,
