category,probe_path,subcategory,fixation_duration,label,trials.thisRepN,trials.thisTrialN,trials.thisN,trials.thisIndex,image_onset_time,response_window,correctAns,probe_onset,discrim_resptime,response.corr,response.keys,response.rt,visible_resptime,visible.keys,visible.corr,visible.rt,probeFrames,jitter2,n_square,experiment_color,frameRate,date,session,image_size,premask_dur,probeFrames,participant,expName,postmask_dur,
Nonliving_Things,../experiment_stimuli/bw_bc_bl/Nonliving_Things/Buildings/church_20.jpg,Buildings,0,church,0,0,0,17,3.71663199412,V_nV,2,3.73720412422,4.99935005233,1,2,0.451213928871,5.4813845777,3,0,0.0603687819093,5,6.5,32,bw,99.7835291021,2019_jun_06_1639,018,256,20,5,maria,Experiment_EEG_version,20,
Nonliving_Things,../experiment_stimuli/bw_bc_bl/Nonliving_Things/Furniture/lamp_9.jpg,Furniture,0,lamp,0,1,1,46,7.27436126024,nV_V,1,7.27914005611,8.51696709916,0,2,0.521383713465,9.05890768766,1,1,0.0503850230016,5,6.5,32,bw,99.7835291021,2019_jun_06_1639,018,256,20,5,maria,Experiment_EEG_version,20,
Nonliving_Things,../experiment_stimuli/bw_bc_bl/Nonliving_Things/Kitchen_Uten/cup_20.jpg,Kitchen_Uten,0,cup,0,2,2,22,10.8421163526,nV_V,1,10.847073067,12.1047675963,1,1,0.721800271422,12.8471096265,3,0,0.0504443831742,5,6.0,32,bw,99.7835291021,2019_jun_06_1639,018,256,20,5,maria,Experiment_EEG_version,20,
Living_Things,../experiment_stimuli/bw_bc_bl/Living_Things/Marine_creatures/narwhal_13.jpg,Marine_creatures,0,narwhal,0,3,3,55,14.63035199,nV_V,2,14.6360703255,15.8629381233,0,1,0.601537870243,16.4850304998,2,0,0.0301332110539,5,6.0,32,bw,99.7835291021,2019_jun_06_1639,018,256,20,5,maria,Experiment_EEG_version,20,
Living_Things,../experiment_stimuli/bw_bc_bl/Living_Things/Animals/tiger_18.jpg,Animals,0,tiger,0,4,4,84,18.2482146169,nV_V,2,18.2531706467,19.4807975846,0,1,0.551477474626,20.0528487153,1,1,0.130502642598,5,6.0,32,bw,99.7835291021,2019_jun_06_1639,018,256,20,5,maria,Experiment_EEG_version,20,
Living_Things,../experiment_stimuli/bw_bc_bl/Living_Things/Birds/duck_2.jpg,Birds,0,duck,0,5,5,26,21.9161910331,V_nV,1,21.9210586362,23.1688141236,1,1,0.651647877879,23.8410091884,1,1,0.120497326832,5,6.0,32,bw,99.7835291021,2019_jun_06_1639,018,256,20,5,maria,Experiment_EEG_version,20,
Nonliving_Things,../experiment_stimuli/bw_bc_bl/Nonliving_Things/Musical_Inst/trumpet_14.jpg,Musical_Inst,0,trumpet,0,6,6,88,25.6944047655,nV_V,1,25.6998995622,26.9670704412,1,1,0.571494905744,27.5591062633,3,0,0.0403073476627,5,6.0,32,bw,99.7835291021,2019_jun_06_1639,018,256,20,5,maria,Experiment_EEG_version,20,
Living_Things,../experiment_stimuli/bw_bc_bl/Living_Things/Animals/giraffe_10.jpg,Animals,0,giraffe,0,7,7,32,29.3323308788,nV_V,2,29.3379023555,30.5749125117,1,2,0.781930899713,31.3773810645,3,0,0.0403114752844,5,7.0,32,bw,99.7835291021,2019_jun_06_1639,018,256,20,5,maria,Experiment_EEG_version,20,
Nonliving_Things,../experiment_stimuli/bw_bc_bl/Nonliving_Things/Furniture/armchair_20.jpg,Furniture,0,armchair,0,8,8,2,33.1506065377,nV_V,1,33.156195668,34.3831908326,0,2,0.501323884353,34.9062150298,1,1,0.0403075162321,5,6.5,32,bw,99.7835291021,2019_jun_06_1639,018,256,20,5,maria,Experiment_EEG_version,20,
Living_Things,../experiment_stimuli/bw_bc_bl/Living_Things/Marine_creatures/manatee_13.jpg,Marine_creatures,0,manatee,0,9,9,52,36.6782746552,V_nV,1,36.6830121363,37.9308997798,1,1,0.701754333451,38.6531960368,2,0,0.0403007008135,5,6.5,32,bw,99.7835291021,2019_jun_06_1639,018,256,20,5,maria,Experiment_EEG_version,20,
Nonliving_Things,../experiment_stimuli/bw_bc_bl/Nonliving_Things/Furniture/bookcase_2.jpg,Furniture,0,bookcase,0,10,10,8,40.426419931,V_nV,2,40.4313729876,41.6690239883,1,2,0.481272092555,42.1708398391,3,0,0.0703770257533,5,6.0,32,bw,99.7835291021,2019_jun_06_1639,018,256,20,5,maria,Experiment_EEG_version,20,
Living_Things,../experiment_stimuli/bw_bc_bl/Living_Things/Animals/horse_24.jpg,Animals,0,horse,0,11,11,40,43.9741349081,nV_V,2,43.9790240596,45.2067156387,1,2,0.601537039038,45.8288075039,1,1,0.0604012664407,5,8.0,32,bw,99.7835291021,2019_jun_06_1639,018,256,20,5,maria,Experiment_EEG_version,20,
Nonliving_Things,../experiment_stimuli/bw_bc_bl/Nonliving_Things/Furniture/Chest-of-drawers_7.jpg,Furniture,0,Chest-of-drawers,0,12,12,0,47.6220607357,nV_V,1,47.626921162,48.8646684885,0,2,0.611559895799,49.4967960594,1,1,0.0403247494251,5,6.0,32,bw,99.7835291021,2019_jun_06_1639,018,256,20,5,maria,Experiment_EEG_version,20,
Nonliving_Things,../experiment_stimuli/bw_bc_bl/Nonliving_Things/Kitchen_Uten/saucepan_0.jpg,Kitchen_Uten,0,saucepan,0,13,13,71,51.2699911683,V_nV,2,51.2753875046,52.5326428334,1,2,0.35098878108,52.9041812229,3,0,0.0102369850501,5,7.0,32,bw,99.7835291021,2019_jun_06_1639,018,256,20,5,maria,Experiment_EEG_version,20,
Living_Things,../experiment_stimuli/bw_bc_bl/Living_Things/Birds/partridge_23.jpg,Birds,0,partridge,0,14,14,59,54.647333751,V_nV,1,54.6522413646,55.8899376164,0,2,0.491298940964,56.4017974511,1,1,0.0405503814109,5,6.0,32,bw,99.7835291021,2019_jun_06_1639,018,256,20,5,maria,Experiment_EEG_version,20,
Nonliving_Things,../experiment_stimuli/bw_bc_bl/Nonliving_Things/Musical_Inst/violin_22.jpg,Musical_Inst,0,violin,0,15,15,92,58.1750136241,nV_V,1,58.1798569039,59.4376500747,1,1,0.681709582917,60.1399165662,3,0,0.0203113369644,5,8.0,32,bw,99.7835291021,2019_jun_06_1639,018,256,20,5,maria,Experiment_EEG_version,20,
Living_Things,../experiment_stimuli/bw_bc_bl/Living_Things/Birds/pelican_14.jpg,Birds,0,pelican,0,16,16,60,61.8930829582,nV_V,2,61.8979311706,63.1356885647,1,2,0.481275524944,63.6374980281,1,1,0.0603529699147,5,6.0,32,bw,99.7835291021,2019_jun_06_1639,018,256,20,5,maria,Experiment_EEG_version,20,
Nonliving_Things,../experiment_stimuli/bw_bc_bl/Nonliving_Things/Buildings/mill_1.jpg,Buildings,0,mill,0,17,17,53,65.4307768079,nV_V,1,65.4357154365,66.7034419952,1,1,0.69190120697,67.4159093704,2,0,0.0403512567282,5,6.5,32,bw,99.7835291021,2019_jun_06_1639,018,256,20,5,maria,Experiment_EEG_version,20,
Nonliving_Things,../experiment_stimuli/bw_bc_bl/Nonliving_Things/Buildings/palace_1.jpg,Buildings,0,palace,0,18,18,58,69.1889373502,nV_V,1,69.1937795626,70.451600451,1,1,0.521365307737,70.9934906191,2,0,0.0403427230194,5,6.0,32,bw,99.7835291021,2019_jun_06_1639,018,256,20,5,maria,Experiment_EEG_version,20,
Nonliving_Things,../experiment_stimuli/bw_bc_bl/Nonliving_Things/Furniture/bed_9.jpg,Furniture,0,bed,0,19,19,5,72.7667196258,V_nV,2,72.7729065558,74.0193447652,1,2,1.08257853705,75.1224859855,3,0,0.0102385454811,5,6.0,32,bw,99.7835291021,2019_jun_06_1639,018,256,20,5,maria,Experiment_EEG_version,20,
Nonliving_Things,../experiment_stimuli/bw_bc_bl/Nonliving_Things/Buildings/castle_22.jpg,Buildings,0,castle,0,20,20,12,76.8656274797,V_nV,2,76.8704398768,78.0982188233,0,1,0.631598616019,78.7503799084,2,0,0.0504357591271,5,6.5,32,bw,99.7835291021,2019_jun_06_1639,018,256,20,5,maria,Experiment_EEG_version,20,
Living_Things,../experiment_stimuli/bw_bc_bl/Living_Things/Animals/tapir_2.jpg,Animals,0,tapir,0,21,21,82,80.5336105353,V_nV,1,80.538536577,81.7661845707,0,2,0.601552268025,82.3883024771,1,1,0.0403139749542,5,7.5,32,bw,99.7835291021,2019_jun_06_1639,018,256,20,5,maria,Experiment_EEG_version,20,
Living_Things,../experiment_stimuli/bw_bc_bl/Living_Things/Animals/cat_10.jpg,Animals,0,cat,0,22,22,13,84.1614892213,nV_V,2,84.167867254,85.4046549625,1,2,0.621582740452,86.0462496835,1,1,0.0403298772871,5,7.0,32,bw,99.7835291021,2019_jun_06_1639,018,256,20,5,maria,Experiment_EEG_version,20,
Nonliving_Things,../experiment_stimuli/bw_bc_bl/Nonliving_Things/Vehicles/ship_18.jpg,Vehicles,0,ship,0,23,23,76,87.8194591268,V_nV,2,87.8251741799,89.1021314864,1,2,0.501320549287,89.6240162826,3,0,0.0301270424388,5,6.5,32,bw,99.7835291021,2019_jun_06_1639,018,256,20,5,maria,Experiment_EEG_version,20,
Living_Things,../experiment_stimuli/bw_bc_bl/Living_Things/Animals/cheetah_9.jpg,Animals,0,cheetah,0,24,24,16,91.3871960128,V_nV,1,91.3922608574,92.6498439936,0,2,0.50131863961,93.1717288014,3,0,0.0202827360481,5,6.5,32,bw,99.7835291021,2019_jun_06_1639,018,256,20,5,maria,Experiment_EEG_version,20,
Living_Things,../experiment_stimuli/bw_bc_bl/Living_Things/Birds/kiwi_6.jpg,Birds,0,kiwi,0,25,25,44,94.9248869903,nV_V,2,94.9313202626,96.1674884087,0,1,0.591518690344,96.7795850337,2,0,0.0301408725791,5,6.0,32,bw,99.7835291021,2019_jun_06_1639,018,256,20,5,maria,Experiment_EEG_version,20,
Living_Things,../experiment_stimuli/bw_bc_bl/Living_Things/Birds/goose_20.jpg,Birds,0,goose,0,26,26,34,98.5427510566,nV_V,2,98.5476550688,99.7753318627,0,1,1.44335840782,101.249279028,3,0,0.0904128290713,5,8.0,32,bw,99.7835291021,2019_jun_06_1639,018,256,20,5,maria,Experiment_EEG_version,20,
Nonliving_Things,../experiment_stimuli/bw_bc_bl/Nonliving_Things/Vehicles/boat_23.jpg,Vehicles,0,boat,0,27,27,7,103.072596446,nV_V,1,103.077468368,104.30517794,1,1,0.541428839788,104.867159286,3,0,0.0303559526801,5,6.0,32,bw,99.7835291021,2019_jun_06_1639,018,256,20,5,maria,Experiment_EEG_version,20,
Living_Things,../experiment_stimuli/bw_bc_bl/Living_Things/Animals/armadillo_0.jpg,Animals,0,armadillo,0,28,28,1,106.630344636,V_nV,1,106.635215886,107.862918751,1,1,0.801974180155,108.68544461,1,1,0.100449572783,5,6.0,32,bw,99.7835291021,2019_jun_06_1639,018,256,20,5,maria,Experiment_EEG_version,20,
Nonliving_Things,../experiment_stimuli/bw_bc_bl/Nonliving_Things/Vehicles/van_19.jpg,Vehicles,0,van,0,29,29,91,110.518783711,nV_V,1,110.52359092,111.761388186,1,1,1.62375789974,113.405687291,3,0,0.0203336258419,5,6.0,32,bw,99.7835291021,2019_jun_06_1639,018,256,20,5,maria,Experiment_EEG_version,20,
Nonliving_Things,../experiment_stimuli/bw_bc_bl/Nonliving_Things/Furniture/sofa_4.jpg,Furniture,0,sofa,0,30,30,78,115.158872499,V_nV,2,115.163705395,116.391464774,0,1,0.541425997857,116.953450914,1,1,0.130502932239,5,6.0,32,bw,99.7835291021,2019_jun_06_1639,018,256,20,5,maria,Experiment_EEG_version,20,
Nonliving_Things,../experiment_stimuli/bw_bc_bl/Nonliving_Things/Vehicles/plane_1.jpg,Vehicles,0,plane,0,31,31,64,118.816822085,V_nV,2,118.822578337,120.069447134,0,1,0.671678741463,120.761689133,1,1,0.120478643104,5,6.0,32,bw,99.7835291021,2019_jun_06_1639,018,256,20,5,maria,Experiment_EEG_version,20,
Living_Things,../experiment_stimuli/bw_bc_bl/Living_Things/Insects/ladybird_16.jpg,Insects,0,ladybird,0,32,32,45,122.615074812,nV_V,2,122.61995687,123.887747766,0,1,0.561445590574,124.479771483,3,0,0.0403060428798,5,6.5,32,bw,99.7835291021,2019_jun_06_1639,018,256,20,5,maria,Experiment_EEG_version,20,
Living_Things,../experiment_stimuli/bw_bc_bl/Living_Things/Marine_creatures/dolphin_9.jpg,Marine_creatures,0,dolphin,0,33,33,23,126.25298688,V_nV,1,126.257800706,127.495596179,0,2,0.741840559989,128.257983343,3,0,0.0603536432609,5,6.5,32,bw,99.7835291021,2019_jun_06_1639,018,256,20,5,maria,Experiment_EEG_version,20,
Nonliving_Things,../experiment_stimuli/bw_bc_bl/Nonliving_Things/Furniture/table_20.jpg,Furniture,0,table,0,34,34,81,130.051253777,V_nV,2,130.057080272,131.283824565,1,2,0.531381006353,131.835744852,1,1,0.0503674219362,5,6.5,32,bw,99.7835291021,2019_jun_06_1639,018,256,20,5,maria,Experiment_EEG_version,20,
Nonliving_Things,../experiment_stimuli/bw_bc_bl/Nonliving_Things/Buildings/granary_16.jpg,Buildings,0,granary,0,35,35,35,133.6189994,nV_V,1,133.624118615,134.881645591,1,1,0.451211978216,135.353410865,3,0,0.0302807465196,5,8.0,32,bw,99.7835291021,2019_jun_06_1639,018,256,20,5,maria,Experiment_EEG_version,20,
Living_Things,../experiment_stimuli/bw_bc_bl/Living_Things/Animals/rhino_19.jpg,Animals,0,rhino,0,36,36,68,137.116599091,V_nV,1,137.122411812,138.349186021,1,1,0.561462755781,138.931201558,1,1,0.120483951177,5,6.0,32,bw,99.7835291021,2019_jun_06_1639,018,256,20,5,maria,Experiment_EEG_version,20,
Living_Things,../experiment_stimuli/bw_bc_bl/Living_Things/Birds/hen_9.jpg,Birds,0,hen,0,37,37,38,140.784594778,nV_V,2,140.789515161,142.027182403,0,1,0.571468323004,142.61919042,1,1,0.110453087371,5,8.0,32,bw,99.7835291021,2019_jun_06_1639,018,256,20,5,maria,Experiment_EEG_version,20,
Living_Things,../experiment_stimuli/bw_bc_bl/Living_Things/Birds/rooster_5.jpg,Birds,0,rooster,0,38,38,70,144.462573434,V_nV,1,144.467548464,145.735233881,0,2,0.97234203713,146.728120337,2,0,0.170602771454,5,6.0,32,bw,99.7835291021,2019_jun_06_1639,018,256,20,5,maria,Experiment_EEG_version,20,
Nonliving_Things,../experiment_stimuli/bw_bc_bl/Nonliving_Things/Musical_Inst/tuba_21.jpg,Musical_Inst,0,tuba,0,39,39,89,148.631631246,V_nV,2,148.636597926,149.894281516,1,2,0.491291971877,150.40614955,3,0,0.0403088852763,5,6.5,32,bw,99.7835291021,2019_jun_06_1639,018,256,20,5,maria,Experiment_EEG_version,20,
Living_Things,../experiment_stimuli/bw_bc_bl/Living_Things/Marine_creatures/killer-whale_22.jpg,Marine_creatures,0,killer-whale,0,40,40,43,152.179343557,V_nV,1,152.18422554,153.421945355,0,2,0.631653810851,154.074169762,3,0,0.0102478908375,5,7.5,32,bw,99.7835291021,2019_jun_06_1639,018,256,20,5,maria,Experiment_EEG_version,20,
Nonliving_Things,../experiment_stimuli/bw_bc_bl/Nonliving_Things/Vehicles/train_25.jpg,Vehicles,0,train,0,41,41,87,155.817253355,V_nV,2,155.822071365,157.049845236,1,2,0.501328110229,157.57171024,1,1,0.0302802245133,5,7.0,32,bw,99.7835291021,2019_jun_06_1639,018,256,20,5,maria,Experiment_EEG_version,20,
Living_Things,../experiment_stimuli/bw_bc_bl/Living_Things/Insects/scorpion_17.jpg,Insects,0,scorpion,0,42,42,73,159.334899838,nV_V,2,159.339986851,160.577512805,1,2,0.55143139232,161.149478933,1,1,0.040302678477,5,6.5,32,bw,99.7835291021,2019_jun_06_1639,018,256,20,5,maria,Experiment_EEG_version,20,
Nonliving_Things,../experiment_stimuli/bw_bc_bl/Nonliving_Things/Vehicles/car_12.jpg,Vehicles,0,car,0,43,43,11,162.922697064,V_nV,2,162.927509627,164.195399909,1,2,0.481281630229,164.697194508,3,0,0.0403103474528,5,6.5,32,bw,99.7835291021,2019_jun_06_1639,018,256,20,5,maria,Experiment_EEG_version,20,
Living_Things,../experiment_stimuli/bw_bc_bl/Living_Things/Insects/dragonfly_0.jpg,Insects,0,dragonfly,0,44,44,24,166.470416124,V_nV,1,166.475289569,167.723033418,1,1,0.42114164168,168.16472078,3,0,0.0604119128548,5,6.0,32,bw,99.7835291021,2019_jun_06_1639,018,256,20,5,maria,Experiment_EEG_version,20,
Nonliving_Things,../experiment_stimuli/bw_bc_bl/Nonliving_Things/Furniture/chair_0.jpg,Furniture,0,chair,0,45,45,15,169.957992605,V_nV,2,169.963035616,171.190580866,1,2,0.441190764308,171.652334656,1,1,0.0403037876822,5,7.5,32,bw,99.7835291021,2019_jun_06_1639,018,256,20,5,maria,Experiment_EEG_version,20,
Nonliving_Things,../experiment_stimuli/bw_bc_bl/Nonliving_Things/Vehicles/tractor_22.jpg,Vehicles,0,tractor,0,46,46,86,173.425529915,nV_V,1,173.431492352,174.678152453,0,2,0.561452447902,175.260162242,3,0,0.0302871339954,5,6.0,32,bw,99.7835291021,2019_jun_06_1639,018,256,20,5,maria,Experiment_EEG_version,20,
Nonliving_Things,../experiment_stimuli/bw_bc_bl/Nonliving_Things/Kitchen_Uten/coking-pot_22.jpg,Kitchen_Uten,0,coking-pot,0,47,47,18,177.023344798,nV_V,1,177.028269476,178.25592948,1,1,0.581507690717,178.85800508,1,1,0.130506232381,5,6.0,32,bw,99.7835291021,2019_jun_06_1639,018,256,20,5,maria,Experiment_EEG_version,20,
Nonliving_Things,../experiment_stimuli/bw_bc_bl/Nonliving_Things/Kitchen_Uten/teapot_23.jpg,Kitchen_Uten,0,teapot,0,48,48,83,180.721399517,V_nV,2,180.726253068,181.963996139,1,2,0.661697786767,182.646245857,1,1,0.0302914269269,5,8.0,32,bw,99.7835291021,2019_jun_06_1639,018,256,20,5,maria,Experiment_EEG_version,20,
Living_Things,../experiment_stimuli/bw_bc_bl/Living_Things/Birds/ostrich_4.jpg,Birds,0,ostrich,0,49,49,56,184.40940918,V_nV,1,184.415477488,185.662027606,1,1,0.892172317021,186.574768414,2,0,0.02044860553,5,6.0,32,bw,99.7835291021,2019_jun_06_1639,018,256,20,5,maria,Experiment_EEG_version,20,
Nonliving_Things,../experiment_stimuli/bw_bc_bl/Nonliving_Things/Vehicles/motorbike_25.jpg,Vehicles,0,motorbike,0,50,50,54,188.327924317,nV_V,1,188.335152131,189.570526675,0,2,0.531398258172,190.122494887,1,1,0.0602039047517,5,7.5,32,bw,99.7835291021,2019_jun_06_1639,018,256,20,5,maria,Experiment_EEG_version,20,
Nonliving_Things,../experiment_stimuli/bw_bc_bl/Nonliving_Things/Kitchen_Uten/frying-pan_10.jpg,Kitchen_Uten,0,frying-pan,0,51,51,31,191.915722558,V_nV,2,191.920469795,193.178370682,1,2,0.54141059937,193.740327848,3,0,0.0503411246464,5,6.5,32,bw,99.7835291021,2019_jun_06_1639,018,256,20,5,maria,Experiment_EEG_version,20,
Living_Things,../experiment_stimuli/bw_bc_bl/Living_Things/Marine_creatures/whale_6.jpg,Marine_creatures,0,whale,0,52,52,94,195.523559562,V_nV,1,195.52837715,196.756146567,1,1,1.51352224872,198.290214503,2,0,0.0904673659243,5,6.5,32,bw,99.7835291021,2019_jun_06_1639,018,256,20,5,maria,Experiment_EEG_version,20,
Nonliving_Things,../experiment_stimuli/bw_bc_bl/Nonliving_Things/Musical_Inst/saxophone_5.jpg,Musical_Inst,0,saxophone,0,53,53,72,200.113541367,V_nV,2,200.118544058,201.346128324,1,2,0.591557873879,201.958238328,2,0,0.140522333328,5,6.0,32,bw,99.7835291021,2019_jun_06_1639,018,256,20,5,maria,Experiment_EEG_version,20,
Living_Things,../experiment_stimuli/bw_bc_bl/Living_Things/Birds/owl_20.jpg,Birds,0,owl,0,54,54,57,203.831626036,V_nV,1,203.836458091,205.064206237,0,2,0.53137991624,205.616145054,1,1,0.0501729734242,5,8.0,32,bw,99.7835291021,2019_jun_06_1639,018,256,20,5,maria,Experiment_EEG_version,20,
Living_Things,../experiment_stimuli/bw_bc_bl/Living_Things/Animals/turtle_19.jpg,Animals,0,turtle,0,55,55,90,207.399385305,V_nV,1,207.405241536,208.641986167,0,2,0.42114957748,209.083699924,1,1,0.0603494290262,5,6.0,32,bw,99.7835291021,2019_jun_06_1639,018,256,20,5,maria,Experiment_EEG_version,20,
Nonliving_Things,../experiment_stimuli/bw_bc_bl/Nonliving_Things/Musical_Inst/drum_16.jpg,Musical_Inst,0,drum,0,56,56,25,210.876940907,nV_V,1,210.881867987,212.129563306,1,1,1.20284798741,213.352961898,3,0,0.0603991202079,5,6.0,32,bw,99.7835291021,2019_jun_06_1639,018,256,20,5,maria,Experiment_EEG_version,20,
Living_Things,../experiment_stimuli/bw_bc_bl/Living_Things/Marine_creatures/crab_18.jpg,Marine_creatures,0,crab,0,57,57,21,215.14622075,V_nV,1,215.152553926,216.378801661,0,2,0.391079831868,216.790437021,1,1,0.0503796134144,5,8.0,32,bw,99.7835291021,2019_jun_06_1639,018,256,20,5,maria,Experiment_EEG_version,20,
Living_Things,../experiment_stimuli/bw_bc_bl/Living_Things/Birds/barn-owl_23.jpg,Birds,0,barn-owl,0,58,58,4,218.573670404,V_nV,1,218.578531683,219.826295833,1,1,0.972347540781,220.819187053,2,0,0.0506054218858,5,6.0,32,bw,99.7835291021,2019_jun_06_1639,018,256,20,5,maria,Experiment_EEG_version,20,
Nonliving_Things,../experiment_stimuli/bw_bc_bl/Nonliving_Things/Vehicles/bus_4.jpg,Vehicles,0,bus,0,59,59,9,222.602431172,V_nV,2,222.607299715,223.845031932,1,2,0.381065674592,224.246709973,3,0,0.0202729203738,5,7.0,32,bw,99.7835291021,2019_jun_06_1639,018,256,20,5,maria,Experiment_EEG_version,20,
Living_Things,../experiment_stimuli/bw_bc_bl/Living_Things/Marine_creatures/lobster_11.jpg,Marine_creatures,0,lobster,0,60,60,49,225.99981631,V_nV,1,226.00470077,227.2323933,0,2,0.431162276305,227.684103692,3,0,0.0202636495233,5,7.5,32,bw,99.7835291021,2019_jun_06_1639,018,256,20,5,maria,Experiment_EEG_version,20,
Living_Things,../experiment_stimuli/bw_bc_bl/Living_Things/Animals/cow_26.jpg,Animals,0,cow,0,61,61,20,229.437281693,nV_V,2,229.444690951,230.669869815,0,1,0.681711868383,231.372129908,1,1,0.120486172847,5,6.5,32,bw,99.7835291021,2019_jun_06_1639,018,256,20,5,maria,Experiment_EEG_version,20,
Nonliving_Things,../experiment_stimuli/bw_bc_bl/Nonliving_Things/Kitchen_Uten/fondue_17.jpg,Kitchen_Uten,0,fondue,0,62,62,30,233.225522368,nV_V,1,233.230353562,234.48816801,1,1,0.641645024996,235.150361843,3,0,0.0302873142064,5,6.5,32,bw,99.7835291021,2019_jun_06_1639,018,256,20,5,maria,Experiment_EEG_version,20,
Living_Things,../experiment_stimuli/bw_bc_bl/Living_Things/Animals/lioness_19.jpg,Animals,0,lioness,0,63,63,48,236.913539272,V_nV,1,236.918511042,238.156143705,1,1,0.882164794486,239.058873882,2,0,0.300872104708,5,7.0,32,bw,99.7835291021,2019_jun_06_1639,018,256,20,5,maria,Experiment_EEG_version,20,
Living_Things,../experiment_stimuli/bw_bc_bl/Living_Things/Birds/hummingbird_12.jpg,Birds,0,hummingbird,0,64,64,42,241.092647176,nV_V,2,241.097533079,242.325202941,0,1,0.581494491547,242.927271086,1,1,0.12047765404,5,6.5,32,bw,99.7835291021,2019_jun_06_1639,018,256,20,5,maria,Experiment_EEG_version,20,
Nonliving_Things,../experiment_stimuli/bw_bc_bl/Nonliving_Things/Tools/hammer_1.jpg,Tools,0,hammer,0,65,65,37,244.780642144,V_nV,2,244.785595998,246.043295091,1,2,1.20284144673,247.276697938,2,0,0.320918200538,5,7.0,32,bw,99.7835291021,2019_jun_06_1639,018,256,20,5,maria,Experiment_EEG_version,20,
Living_Things,../experiment_stimuli/bw_bc_bl/Living_Things/Animals/hippopotamus_20.jpg,Animals,0,hippopotamus,0,66,66,39,249.330528017,nV_V,2,249.335340778,250.583154296,0,1,1.93443826213,252.538150304,3,0,0.28082875628,5,6.0,32,bw,99.7835291021,2019_jun_06_1639,018,256,20,5,maria,Experiment_EEG_version,20,
Living_Things,../experiment_stimuli/bw_bc_bl/Living_Things/Birds/seagull_5.jpg,Birds,0,seagull,0,67,67,74,254.551889867,nV_V,2,254.556742714,255.784458869,0,1,0.611554016359,256.416588271,2,0,0.0503740455024,5,6.0,32,bw,99.7835291021,2019_jun_06_1639,018,256,20,5,maria,Experiment_EEG_version,20,
Living_Things,../experiment_stimuli/bw_bc_bl/Living_Things/Birds/pigeon_17.jpg,Birds,0,pigeon,0,68,68,63,258.199815796,nV_V,2,258.205950512,259.4323917,0,1,0.852080353536,260.305026345,2,0,0.0604008417577,5,6.0,32,bw,99.7835291021,2019_jun_06_1639,018,256,20,5,maria,Experiment_EEG_version,20,
Nonliving_Things,../experiment_stimuli/bw_bc_bl/Nonliving_Things/Musical_Inst/guitar_17.jpg,Musical_Inst,0,guitar,0,69,69,36,262.098282941,nV_V,1,262.104470288,263.330869391,1,1,0.611558598932,263.962984503,2,0,0.0503841470927,5,6.0,32,bw,99.7835291021,2019_jun_06_1639,018,256,20,5,maria,Experiment_EEG_version,20,
Living_Things,../experiment_stimuli/bw_bc_bl/Living_Things/Animals/zebra_6.jpg,Animals,0,zebra,0,70,70,95,265.746211156,nV_V,2,265.75105594,266.978797887,0,1,0.541403765325,267.540801507,1,1,0.23072891729,5,6.0,32,bw,99.7835291021,2019_jun_06_1639,018,256,20,5,maria,Experiment_EEG_version,20,
Nonliving_Things,../experiment_stimuli/bw_bc_bl/Nonliving_Things/Kitchen_Uten/pot_20.jpg,Kitchen_Uten,0,pot,0,71,71,66,269.504384991,V_nV,2,269.510640717,270.767035491,1,2,0.61155852722,271.399939927,3,0,0.0904232463799,5,6.0,32,bw,99.7835291021,2019_jun_06_1639,018,256,20,5,maria,Experiment_EEG_version,20,
Nonliving_Things,../experiment_stimuli/bw_bc_bl/Nonliving_Things/Buildings/factory_7.jpg,Buildings,0,factory,0,72,72,28,273.222461912,nV_V,1,273.227438348,274.455052432,1,1,0.611556204036,275.087164718,1,1,0.150549512822,5,6.0,32,bw,99.7835291021,2019_jun_06_1639,018,256,20,5,maria,Experiment_EEG_version,20,
Living_Things,../experiment_stimuli/bw_bc_bl/Living_Things/Marine_creatures/sperm-whale_10.jpg,Marine_creatures,0,sperm-whale,0,73,73,80,276.970614774,V_nV,1,276.975316932,278.223239602,1,1,0.511343406513,278.755143078,1,1,0.140519841108,5,7.5,32,bw,99.7835291021,2019_jun_06_1639,018,256,20,5,maria,Experiment_EEG_version,20,
Living_Things,../experiment_stimuli/bw_bc_bl/Living_Things/Insects/butterfly_13.jpg,Insects,0,butterfly,0,74,74,10,280.628567499,V_nV,1,280.63341255,281.901241648,1,1,0.581525645684,282.503297091,3,0,0.0403618467972,5,6.5,32,bw,99.7835291021,2019_jun_06_1639,018,256,20,5,maria,Experiment_EEG_version,20,
Living_Things,../experiment_stimuli/bw_bc_bl/Living_Things/Birds/penguin_10.jpg,Birds,0,penguin,0,75,75,61,284.276515308,V_nV,1,284.281316292,285.509081069,0,2,0.511359022465,286.041013917,3,0,0.0203259834088,5,6.5,32,bw,99.7835291021,2019_jun_06_1639,018,256,20,5,maria,Experiment_EEG_version,20,
Nonliving_Things,../experiment_stimuli/bw_bc_bl/Nonliving_Things/Furniture/couch_23.jpg,Furniture,0,couch,0,76,76,19,287.794156742,V_nV,2,287.800332108,289.026730176,1,2,0.471248168033,289.518518674,1,1,0.0503310649656,5,6.0,32,bw,99.7835291021,2019_jun_06_1639,018,256,20,5,maria,Experiment_EEG_version,20,
Living_Things,../experiment_stimuli/bw_bc_bl/Living_Things/Birds/raven_8.jpg,Birds,0,raven,0,77,77,67,291.301765162,V_nV,1,291.306600806,292.574440837,1,1,0.401102097705,292.996088742,3,0,0.0503783347085,5,7.5,32,bw,99.7835291021,2019_jun_06_1639,018,256,20,5,maria,Experiment_EEG_version,20,
Nonliving_Things,../experiment_stimuli/bw_bc_bl/Nonliving_Things/Furniture/filling-cabinet_19.jpg,Furniture,0,filling-cabinet,0,78,78,29,294.779354624,nV_V,1,294.784152713,296.011906051,1,1,1.49349121237,297.525954721,1,1,0.120481124148,5,6.5,32,bw,99.7835291021,2019_jun_06_1639,018,256,20,5,maria,Experiment_EEG_version,20,
Living_Things,../experiment_stimuli/bw_bc_bl/Living_Things/Birds/magpie_19.jpg,Birds,0,magpie,0,79,79,51,299.389344456,V_nV,1,299.394190499,300.652002271,0,2,0.611559824552,301.284108684,1,1,0.0302864233963,5,7.0,32,bw,99.7835291021,2019_jun_06_1639,018,256,20,5,maria,Experiment_EEG_version,20,
Nonliving_Things,../experiment_stimuli/bw_bc_bl/Nonliving_Things/Tools/axe_6.jpg,Tools,0,axe,0,80,80,3,303.047304617,nV_V,1,303.05358485,304.309946384,1,1,0.571467131842,304.901972973,1,1,0.100432287436,5,6.0,32,bw,99.7835291021,2019_jun_06_1639,018,256,20,5,maria,Experiment_EEG_version,20,
Living_Things,../experiment_stimuli/bw_bc_bl/Living_Things/Animals/elephant_9.jpg,Animals,0,elephant,0,81,81,27,306.735316156,nV_V,2,306.741691309,308.028033628,1,2,0.501336805057,308.549913958,3,0,0.090406047646,5,7.5,32,bw,99.7835291021,2019_jun_06_1639,018,256,20,5,maria,Experiment_EEG_version,20,
Living_Things,../experiment_stimuli/bw_bc_bl/Living_Things/Birds/toucan_9.jpg,Birds,0,toucan,0,82,82,85,310.37322362,V_nV,1,310.378033765,311.645894882,1,1,0.641637010034,312.308090033,3,0,0.070435566362,5,7.0,32,bw,99.7835291021,2019_jun_06_1639,018,256,20,5,maria,Experiment_EEG_version,20,
Nonliving_Things,../experiment_stimuli/bw_bc_bl/Nonliving_Things/Furniture/rocking-chair_12.jpg,Furniture,0,rocking-chair,0,83,83,69,314.11135223,nV_V,1,314.116231747,315.343948262,0,2,0.501318312716,315.865806405,1,1,0.0403097234666,5,7.5,32,bw,99.7835291021,2019_jun_06_1639,018,256,20,5,maria,Experiment_EEG_version,20,
Living_Things,../experiment_stimuli/bw_bc_bl/Living_Things/Birds/goldfinch_10.jpg,Birds,0,goldfinch,0,84,84,33,317.639046051,nV_V,2,317.646894889,318.901668618,1,2,0.551426978782,319.473642514,1,1,0.0403593997471,5,6.5,32,bw,99.7835291021,2019_jun_06_1639,018,256,20,5,maria,Experiment_EEG_version,20,
Living_Things,../experiment_stimuli/bw_bc_bl/Living_Things/Birds/sparrow_9.jpg,Birds,0,sparrow,0,85,85,79,321.246879592,V_nV,1,321.251738417,322.519530997,1,1,0.822013821453,323.362087182,1,1,0.140520201996,5,6.0,32,bw,99.7835291021,2019_jun_06_1639,018,256,20,5,maria,Experiment_EEG_version,20,
Nonliving_Things,../experiment_stimuli/bw_bc_bl/Nonliving_Things/Kitchen_Uten/small-saucepan_13.jpg,Kitchen_Uten,0,small-saucepan,0,86,86,77,325.235538915,V_nV,2,325.240326572,326.518221508,0,1,0.511370465625,327.050154036,2,0,0.0804478176869,5,6.0,32,bw,99.7835291021,2019_jun_06_1639,018,256,20,5,maria,Experiment_EEG_version,20,
Living_Things,../experiment_stimuli/bw_bc_bl/Living_Things/Marine_creatures/pomfret_13.jpg,Marine_creatures,0,pomfret,0,87,87,65,328.863414015,nV_V,2,328.868214943,330.146108976,0,1,0.651655686554,330.818337807,3,0,0.030281629879,5,7.0,32,bw,99.7835291021,2019_jun_06_1639,018,256,20,5,maria,Experiment_EEG_version,20,
Living_Things,../experiment_stimuli/bw_bc_bl/Living_Things/Marine_creatures/shark_20.jpg,Marine_creatures,0,shark,0,88,88,75,332.58150009,nV_V,2,332.586391016,333.824112114,0,1,0.741840691306,334.586531074,3,0,0.090476309415,5,6.0,32,bw,99.7835291021,2019_jun_06_1639,018,256,20,5,maria,Experiment_EEG_version,20,
Nonliving_Things,../experiment_stimuli/bw_bc_bl/Nonliving_Things/Furniture/lectern_24.jpg,Furniture,0,lectern,0,89,89,47,336.409821048,V_nV,2,336.414653562,337.642405712,1,2,0.531383607537,338.194377555,1,1,0.0403086598963,5,6.5,32,bw,99.7835291021,2019_jun_06_1639,018,256,20,5,maria,Experiment_EEG_version,20,
Nonliving_Things,../experiment_stimuli/bw_bc_bl/Nonliving_Things/Buildings/cathedral_16.jpg,Buildings,0,cathedral,0,90,90,14,339.967561461,nV_V,1,339.972304633,341.230204968,1,1,0.681719128042,341.932473106,3,0,0.0806909194216,5,7.0,32,bw,99.7835291021,2019_jun_06_1639,018,256,20,5,maria,Experiment_EEG_version,20,
Nonliving_Things,../experiment_stimuli/bw_bc_bl/Nonliving_Things/Furniture/bedside-table_21.jpg,Furniture,0,bedside-table,0,91,91,6,343.745765517,nV_V,1,343.750652292,344.988374799,0,2,0.511337477714,345.520258821,1,1,0.0403112121858,5,6.0,32,bw,99.7835291021,2019_jun_06_1639,018,256,20,5,maria,Experiment_EEG_version,20,
Nonliving_Things,../experiment_stimuli/bw_bc_bl/Nonliving_Things/Buildings/house_26.jpg,Buildings,0,house,0,92,92,41,347.29350141,nV_V,1,347.298310461,348.546118723,1,1,0.47127078101,349.037949382,3,0,0.0303401970305,5,6.0,32,bw,99.7835291021,2019_jun_06_1639,018,256,20,5,maria,Experiment_EEG_version,20,
Nonliving_Things,../experiment_stimuli/bw_bc_bl/Nonliving_Things/Furniture/wardrobe_21.jpg,Furniture,0,wardrobe,0,93,93,93,350.801105913,nV_V,1,350.805815571,352.033691223,1,1,0.511353533715,352.565604948,3,0,0.0604166607372,5,6.0,32,bw,99.7835291021,2019_jun_06_1639,018,256,20,5,maria,Experiment_EEG_version,20,
Living_Things,../experiment_stimuli/bw_bc_bl/Living_Things/Animals/lynx_24.jpg,Animals,0,lynx,0,94,94,50,354.358840592,nV_V,2,354.363642569,355.591431835,0,1,0.461070073303,356.073056069,2,0,0.220703467261,5,6.5,32,bw,99.7835291021,2019_jun_06_1639,018,256,20,5,maria,Experiment_EEG_version,20,
Nonliving_Things,../experiment_stimuli/bw_bc_bl/Nonliving_Things/Musical_Inst/piano__21.jpg,Musical_Inst,0,piano,0,95,95,62,358.026818667,nV_V,1,358.033260149,359.259407992,1,1,0.491292967461,359.771247485,2,0,0.200654754415,5,6.0,32,bw,99.7835291021,2019_jun_06_1639,018,256,20,5,maria,Experiment_EEG_version,20,
