category,probe_path,subcategory,fixation_duration,label,trials.thisRepN,trials.thisTrialN,trials.thisN,trials.thisIndex,image_onset_time,response_window,correctAns,probe_onset,discrim_resptime,response.corr,response.keys,response.rt,visible_resptime,visible.keys,visible.corr,visible.rt,probeFrames,jitter2,n_square,experiment_color,frameRate,date,session,image_size,premask_dur,probeFrames,participant,expName,postmask_dur,
Living_Things,../experiment_stimuli/bw_bc_bl/Living_Things/Birds/kiwi_6.jpg,Birds,0,kiwi,0,0,0,44,3.71585278725,V_nV,1,3.7376295242,4.99854291347,1,1,0.671687658643,5.70106943464,2,0,0.120478248224,5,6.0,32,bw,99.7845769562,2019_may_28_1038,018,256,20,5,leyre,Experiment_EEG_version,20,
Nonliving_Things,../experiment_stimuli/bw_bc_bl/Nonliving_Things/Tools/axe_6.jpg,Tools,0,axe,0,1,1,3,7.55419277493,V_nV,2,7.55897996947,8.81684222561,0,1,0.160632380052,8.99805122078,2,0,0.0904365994502,5,6.0,32,bw,99.7845769562,2019_may_28_1038,018,256,20,5,leyre,Experiment_EEG_version,20,
Nonliving_Things,../experiment_stimuli/bw_bc_bl/Nonliving_Things/Musical_Inst/piano__21.jpg,Musical_Inst,0,piano,0,2,2,62,10.8212973911,nV_V,1,10.8261762802,12.0739203312,1,1,0.611563606188,12.7060563983,2,0,0.120483458508,5,7.0,32,bw,99.7845769562,2019_may_28_1038,018,256,20,5,leyre,Experiment_EEG_version,20,
Living_Things,../experiment_stimuli/bw_bc_bl/Living_Things/Insects/scorpion_17.jpg,Insects,0,scorpion,0,3,3,73,14.5594261861,V_nV,1,14.5644900575,15.8020248753,0,2,0.0403277832083,15.86288647,1,1,0.130509104813,5,6.0,32,bw,99.7845769562,2019_may_28_1038,018,256,20,5,leyre,Experiment_EEG_version,20,
Nonliving_Things,../experiment_stimuli/bw_bc_bl/Nonliving_Things/Vehicles/bus_4.jpg,Vehicles,0,bus,0,4,4,9,17.726359068,V_nV,2,17.7312747005,18.9889788611,1,2,0.491311505204,19.5008250268,3,0,0.180623800261,5,6.5,32,bw,99.7845769562,2019_may_28_1038,018,256,20,5,leyre,Experiment_EEG_version,20,
Living_Things,../experiment_stimuli/bw_bc_bl/Living_Things/Animals/tapir_2.jpg,Animals,0,tapir,0,5,5,82,21.4143363743,V_nV,1,21.4191342269,22.6569347929,0,2,0.521362412954,23.198836592,2,0,0.230713996571,5,6.5,32,bw,99.7845769562,2019_may_28_1038,018,256,20,5,leyre,Experiment_EEG_version,20,
Nonliving_Things,../experiment_stimuli/bw_bc_bl/Nonliving_Things/Kitchen_Uten/coking-pot_22.jpg,Kitchen_Uten,0,coking-pot,0,6,6,18,25.1624712632,V_nV,2,25.1678268632,26.3950486861,1,2,0.220710075926,26.6362951559,1,1,0.0603642968927,5,6.0,32,bw,99.7845769562,2019_may_28_1038,018,256,20,5,leyre,Experiment_EEG_version,20,
Nonliving_Things,../experiment_stimuli/bw_bc_bl/Nonliving_Things/Vehicles/train_25.jpg,Vehicles,0,train,0,7,7,87,28.4295746498,V_nV,2,28.4344775572,29.6721775045,1,2,0.170439479873,29.8631664233,1,1,0.0703929956071,5,6.0,32,bw,99.7845769562,2019_may_28_1038,018,256,20,5,leyre,Experiment_EEG_version,20,
Nonliving_Things,../experiment_stimuli/bw_bc_bl/Nonliving_Things/Vehicles/motorbike_25.jpg,Vehicles,0,motorbike,0,8,8,54,31.6666043173,V_nV,2,31.6715374307,32.939285252,1,2,0.441205993528,33.4010255153,3,0,0.200659133727,5,6.5,32,bw,99.7845769562,2019_may_28_1038,018,256,20,5,leyre,Experiment_EEG_version,20,
Living_Things,../experiment_stimuli/bw_bc_bl/Living_Things/Birds/ostrich_4.jpg,Birds,0,ostrich,0,9,9,56,35.3345824778,nV_V,2,35.3393936872,36.5872049707,1,2,0.581486743875,37.1892411304,2,0,0.200654442189,5,6.0,32,bw,99.7845769562,2019_may_28_1038,018,256,20,5,leyre,Experiment_EEG_version,20,
Living_Things,../experiment_stimuli/bw_bc_bl/Living_Things/Marine_creatures/dolphin_9.jpg,Marine_creatures,0,dolphin,0,10,10,23,39.1228172584,nV_V,2,39.128292022,40.36541453,1,2,0.220723267645,40.6067026383,1,1,0.0904392797966,5,6.0,32,bw,99.7845769562,2019_may_28_1038,018,256,20,5,leyre,Experiment_EEG_version,20,
Living_Things,../experiment_stimuli/bw_bc_bl/Living_Things/Animals/rhino_19.jpg,Animals,0,rhino,0,11,11,68,42.4300057739,nV_V,2,42.4348967005,43.7026737018,1,2,0.350991179934,44.0741944597,2,0,0.290869063931,5,6.0,32,bw,99.7845769562,2019_may_28_1038,018,256,20,5,leyre,Experiment_EEG_version,20,
Nonliving_Things,../experiment_stimuli/bw_bc_bl/Nonliving_Things/Kitchen_Uten/teapot_23.jpg,Kitchen_Uten,0,teapot,0,12,12,83,46.0979769349,V_nV,2,46.1028642524,47.3606187957,1,2,0.741842954652,48.1230141211,1,1,0.18062572903,5,6.5,32,bw,99.7845769562,2019_may_28_1038,018,256,20,5,leyre,Experiment_EEG_version,20,
Nonliving_Things,../experiment_stimuli/bw_bc_bl/Nonliving_Things/Vehicles/plane_1.jpg,Vehicles,0,plane,0,13,13,64,50.0365384123,V_nV,2,50.0413892451,51.3192373579,1,2,0.100451903651,51.4402397829,1,1,0.18061543582,5,6.0,32,bw,99.7845769562,2019_may_28_1038,018,256,20,5,leyre,Experiment_EEG_version,20,
Nonliving_Things,../experiment_stimuli/bw_bc_bl/Nonliving_Things/Furniture/Chest-of-drawers_7.jpg,Furniture,0,Chest-of-drawers,0,14,14,0,53.3537484498,nV_V,1,53.358659229,54.6564889429,0,2,0.0703776124865,54.7474057311,1,1,0.150544720236,5,6.0,32,bw,99.7845769562,2019_may_28_1038,018,256,20,5,leyre,Experiment_EEG_version,20,
Nonliving_Things,../experiment_stimuli/bw_bc_bl/Nonliving_Things/Vehicles/car_12.jpg,Vehicles,0,car,0,15,15,11,56.6308948507,nV_V,1,56.6357795515,57.94363643,0,2,1.62379468116,59.5880057786,1,1,0.120481898542,5,7.5,32,bw,99.7845769562,2019_may_28_1038,018,256,20,5,leyre,Experiment_EEG_version,20,
Nonliving_Things,../experiment_stimuli/bw_bc_bl/Nonliving_Things/Buildings/granary_16.jpg,Buildings,0,granary,0,16,16,35,61.4413487022,V_nV,2,61.4463284656,62.7841564035,1,2,0.501502859173,63.3061926037,3,0,0.170591549249,5,6.0,32,bw,99.7845769562,2019_may_28_1038,018,256,20,5,leyre,Experiment_EEG_version,20,
Nonliving_Things,../experiment_stimuli/bw_bc_bl/Nonliving_Things/Vehicles/boat_23.jpg,Vehicles,0,boat,0,17,17,7,65.2095404803,V_nV,2,65.2142788898,66.522288766,0,1,0.701765325619,67.2446092749,1,1,0.220718418015,5,6.0,32,bw,99.7845769562,2019_may_28_1038,018,256,20,5,leyre,Experiment_EEG_version,20,
Nonliving_Things,../experiment_stimuli/bw_bc_bl/Nonliving_Things/Kitchen_Uten/cup_20.jpg,Kitchen_Uten,0,cup,0,18,18,22,69.1981957401,V_nV,2,69.20447856,70.5309923142,1,2,0.401107969694,70.952654948,3,0,0.200658329064,5,6.5,32,bw,99.7845769562,2019_may_28_1038,018,256,20,5,leyre,Experiment_EEG_version,20,
Nonliving_Things,../experiment_stimuli/bw_bc_bl/Nonliving_Things/Musical_Inst/drum_16.jpg,Musical_Inst,0,drum,0,19,19,25,72.8862094672,V_nV,2,72.8910142595,74.1989602379,1,2,0.3810636329,74.6106102522,3,0,0.0904318741523,5,6.0,32,bw,99.7845769562,2019_may_28_1038,018,256,20,5,leyre,Experiment_EEG_version,20,
Living_Things,../experiment_stimuli/bw_bc_bl/Living_Things/Animals/lioness_19.jpg,Animals,0,lioness,0,20,20,48,76.4339236775,nV_V,2,76.4395785474,77.7266338668,0,1,0.361008987762,78.1082310709,1,1,0.290853748331,5,6.0,32,bw,99.7845769562,2019_may_28_1038,018,256,20,5,leyre,Experiment_EEG_version,20,
Living_Things,../experiment_stimuli/bw_bc_bl/Living_Things/Birds/hen_9.jpg,Birds,0,hen,0,21,21,38,80.1319673925,V_nV,1,80.137499118,81.4346926112,0,2,0.0703921797685,81.5256324818,1,1,0.110464628553,5,6.0,32,bw,99.7845769562,2019_may_28_1038,018,256,20,5,leyre,Experiment_EEG_version,20,
Living_Things,../experiment_stimuli/bw_bc_bl/Living_Things/Insects/dragonfly_0.jpg,Insects,0,dragonfly,0,22,22,24,83.3689993902,V_nV,1,83.3748711259,84.6917722733,1,1,0.5713052582,85.2836552064,3,0,0.120330114849,5,6.5,32,bw,99.7845769562,2019_may_28_1038,018,256,20,5,leyre,Experiment_EEG_version,20,
Nonliving_Things,../experiment_stimuli/bw_bc_bl/Nonliving_Things/Musical_Inst/trumpet_14.jpg,Musical_Inst,0,trumpet,0,23,23,88,87.1371882586,V_nV,2,87.1423676882,88.4299001023,1,2,0.371037584962,88.8215003698,3,0,0.140543149086,5,8.0,32,bw,99.7845769562,2019_may_28_1038,018,256,20,5,leyre,Experiment_EEG_version,20,
Living_Things,../experiment_stimuli/bw_bc_bl/Living_Things/Marine_creatures/narwhal_13.jpg,Marine_creatures,0,narwhal,0,24,24,55,90.6949302426,V_nV,1,90.6998754425,91.9676020236,1,1,0.601542084245,92.5896993284,2,0,0.140543479938,5,8.0,32,bw,99.7845769562,2019_may_28_1038,018,256,20,5,leyre,Experiment_EEG_version,20,
Living_Things,../experiment_stimuli/bw_bc_bl/Living_Things/Birds/hummingbird_12.jpg,Birds,0,hummingbird,0,25,25,42,94.4631169231,nV_V,2,94.4689119039,95.725767795,1,2,0.531396062346,96.2777139165,2,0,0.210788962664,5,6.5,32,bw,99.7845769562,2019_may_28_1038,018,256,20,5,leyre,Experiment_EEG_version,20,
Living_Things,../experiment_stimuli/bw_bc_bl/Living_Things/Insects/butterfly_13.jpg,Insects,0,butterfly,0,26,26,10,98.2212932734,V_nV,1,98.2261517001,99.4739194089,1,1,0.661676452495,100.16615889,3,0,0.150556031615,5,6.0,32,bw,99.7845769562,2019_may_28_1038,018,256,20,5,leyre,Experiment_EEG_version,20,
Living_Things,../experiment_stimuli/bw_bc_bl/Living_Things/Animals/cow_26.jpg,Animals,0,cow,0,27,27,20,102.049608066,nV_V,2,102.054410798,103.282187553,1,2,0.0102516426705,103.312973424,1,1,0.120503169019,5,6.0,32,bw,99.7845769562,2019_may_28_1038,018,256,20,5,leyre,Experiment_EEG_version,20,
Living_Things,../experiment_stimuli/bw_bc_bl/Living_Things/Birds/duck_2.jpg,Birds,0,duck,0,28,28,26,105.166385786,V_nV,1,105.171348087,106.419012772,0,2,0.230830915738,106.670392671,2,0,0.150563159492,5,6.5,32,bw,99.7845769562,2019_may_28_1038,018,256,20,5,leyre,Experiment_EEG_version,20,
Nonliving_Things,../experiment_stimuli/bw_bc_bl/Nonliving_Things/Tools/hammer_1.jpg,Tools,0,hammer,0,29,29,37,108.553747064,V_nV,2,108.559584116,109.796349617,1,2,0.150560283801,109.967464847,1,1,0.130522694672,5,6.0,32,bw,99.7845769562,2019_may_28_1038,018,256,20,5,leyre,Experiment_EEG_version,20,
Nonliving_Things,../experiment_stimuli/bw_bc_bl/Nonliving_Things/Furniture/bedside-table_21.jpg,Furniture,0,bedside-table,0,30,30,6,111.830875923,nV_V,1,111.835779252,113.0935181,1,1,0.160573542351,113.274629987,2,0,0.561434275238,5,6.0,32,bw,99.7845769562,2019_may_28_1038,018,256,20,5,leyre,Experiment_EEG_version,20,
Nonliving_Things,../experiment_stimuli/bw_bc_bl/Nonliving_Things/Musical_Inst/tuba_21.jpg,Musical_Inst,0,tuba,0,31,31,89,115.568995993,nV_V,1,115.573956915,116.821621757,1,1,0.501332898857,117.343503681,3,0,0.100439422764,5,6.0,32,bw,99.7845769562,2019_may_28_1038,018,256,20,5,leyre,Experiment_EEG_version,20,
Living_Things,../experiment_stimuli/bw_bc_bl/Living_Things/Birds/seagull_5.jpg,Birds,0,seagull,0,32,32,74,119.176845793,nV_V,2,119.182663635,120.409419972,0,1,0.220706249122,120.650680317,2,0,0.0603605492506,5,7.5,32,bw,99.7845769562,2019_may_28_1038,018,256,20,5,leyre,Experiment_EEG_version,20,
Living_Things,../experiment_stimuli/bw_bc_bl/Living_Things/Birds/sparrow_9.jpg,Birds,0,sparrow,0,33,33,79,122.443941436,nV_V,2,122.448851802,123.676539358,0,1,0.160576726776,123.857655941,2,0,0.0904176335316,5,6.5,32,bw,99.7845769562,2019_may_28_1038,018,256,20,5,leyre,Experiment_EEG_version,20,
Nonliving_Things,../experiment_stimuli/bw_bc_bl/Nonliving_Things/Buildings/mill_1.jpg,Buildings,0,mill,0,34,34,53,125.680981167,V_nV,2,125.686233975,126.913561119,1,2,0.0603651469573,126.994473589,1,1,0.140521686757,5,8.0,32,bw,99.7845769562,2019_may_28_1038,018,256,20,5,leyre,Experiment_EEG_version,20,
Living_Things,../experiment_stimuli/bw_bc_bl/Living_Things/Animals/giraffe_10.jpg,Animals,0,giraffe,0,35,35,32,128.867914382,V_nV,1,128.874776912,130.120530353,1,1,0.12049116171,130.261559897,1,1,0.48126590834,5,7.5,32,bw,99.7845769562,2019_may_28_1038,018,256,20,5,leyre,Experiment_EEG_version,20,
Living_Things,../experiment_stimuli/bw_bc_bl/Living_Things/Animals/hippopotamus_20.jpg,Animals,0,hippopotamus,0,36,36,39,132.475756404,nV_V,2,132.480698491,133.748420933,1,2,0.601534121903,134.37050225,2,0,0.280844673514,5,6.5,32,bw,99.7845769562,2019_may_28_1038,018,256,20,5,leyre,Experiment_EEG_version,20,
Nonliving_Things,../experiment_stimuli/bw_bc_bl/Nonliving_Things/Furniture/chair_0.jpg,Furniture,0,chair,0,37,37,15,136.384254887,V_nV,2,136.38926836,137.646899661,1,2,0.0603715414181,137.727832991,1,1,0.150555471657,5,6.5,32,bw,99.7845769562,2019_may_28_1038,018,256,20,5,leyre,Experiment_EEG_version,20,
Nonliving_Things,../experiment_stimuli/bw_bc_bl/Nonliving_Things/Kitchen_Uten/frying-pan_10.jpg,Kitchen_Uten,0,frying-pan,0,38,38,31,139.611269013,V_nV,2,139.616140775,140.89396673,1,2,1.56365117361,142.478160497,3,0,0.090415896615,5,6.5,32,bw,99.7845769562,2019_may_28_1038,018,256,20,5,leyre,Experiment_EEG_version,20,
Living_Things,../experiment_stimuli/bw_bc_bl/Living_Things/Birds/owl_20.jpg,Birds,0,owl,0,39,39,57,144.301461794,nV_V,2,144.307312876,145.564108343,1,2,0.0403157649562,145.62497726,1,1,0.120492733084,5,6.5,32,bw,99.7845769562,2019_may_28_1038,018,256,20,5,leyre,Experiment_EEG_version,20,
Nonliving_Things,../experiment_stimuli/bw_bc_bl/Nonliving_Things/Furniture/couch_23.jpg,Furniture,0,couch,0,40,40,19,147.478367946,nV_V,1,147.485142736,148.75103384,1,1,0.571471477393,149.343063917,3,0,0.100442249561,5,6.5,32,bw,99.7845769562,2019_may_28_1038,018,256,20,5,leyre,Experiment_EEG_version,20,
Nonliving_Things,../experiment_stimuli/bw_bc_bl/Nonliving_Things/Musical_Inst/violin_22.jpg,Musical_Inst,0,violin,0,41,41,92,151.176422638,V_nV,2,151.181445909,152.419009226,1,2,0.12050540559,152.560056699,1,1,0.100447245874,5,6.5,32,bw,99.7845769562,2019_may_28_1038,018,256,20,5,leyre,Experiment_EEG_version,20,
Living_Things,../experiment_stimuli/bw_bc_bl/Living_Things/Birds/barn-owl_23.jpg,Birds,0,barn-owl,0,42,42,4,154.393403852,V_nV,1,154.398264121,155.646025341,0,2,0.19064158923,155.857232358,1,1,0.0703930896707,5,6.5,32,bw,99.7845769562,2019_may_28_1038,018,256,20,5,leyre,Experiment_EEG_version,20,
Living_Things,../experiment_stimuli/bw_bc_bl/Living_Things/Birds/toucan_9.jpg,Birds,0,toucan,0,43,43,85,157.66050028,V_nV,1,157.667454151,158.923147126,1,1,0.220725350082,159.164430697,1,1,0.170592391398,5,6.0,32,bw,99.7845769562,2019_may_28_1038,018,256,20,5,leyre,Experiment_EEG_version,20,
Nonliving_Things,../experiment_stimuli/bw_bc_bl/Nonliving_Things/Musical_Inst/guitar_17.jpg,Musical_Inst,0,guitar,0,44,44,36,161.067908523,V_nV,2,161.072785577,162.360621216,1,2,0.521370533155,162.902547586,3,0,0.180629800307,5,7.5,32,bw,99.7845769562,2019_may_28_1038,018,256,20,5,leyre,Experiment_EEG_version,20,
Living_Things,../experiment_stimuli/bw_bc_bl/Living_Things/Marine_creatures/whale_6.jpg,Marine_creatures,0,whale,0,45,45,94,164.816065234,V_nV,1,164.822009047,166.078708035,1,1,0.661674445029,166.760931888,2,0,0.110314449994,5,7.5,32,bw,99.7845769562,2019_may_28_1038,018,256,20,5,leyre,Experiment_EEG_version,20,
Living_Things,../experiment_stimuli/bw_bc_bl/Living_Things/Animals/horse_24.jpg,Animals,0,horse,0,46,46,40,168.604292635,nV_V,2,168.609399506,169.856918252,1,2,0.541405434255,170.418881147,2,0,0.180616356665,5,6.0,32,bw,99.7845769562,2019_may_28_1038,018,256,20,5,leyre,Experiment_EEG_version,20,
Nonliving_Things,../experiment_stimuli/bw_bc_bl/Nonliving_Things/Furniture/sofa_4.jpg,Furniture,0,sofa,0,47,47,78,172.332399059,V_nV,2,172.337186133,173.575005601,1,2,0.0703988829628,173.665945295,1,1,0.12048872211,5,6.0,32,bw,99.7845769562,2019_may_28_1038,018,256,20,5,leyre,Experiment_EEG_version,20,
Living_Things,../experiment_stimuli/bw_bc_bl/Living_Things/Birds/pelican_14.jpg,Birds,0,pelican,0,48,48,60,175.519342744,V_nV,1,175.524308774,176.781986898,0,2,0.190667152638,176.993205155,1,1,0.0904335919768,5,6.5,32,bw,99.7845769562,2019_may_28_1038,018,256,20,5,leyre,Experiment_EEG_version,20,
Living_Things,../experiment_stimuli/bw_bc_bl/Living_Things/Animals/cat_10.jpg,Animals,0,cat,0,49,49,13,178.816496663,nV_V,2,178.821359195,180.099187876,1,2,0.471251254901,180.591016591,2,0,0.270828369539,5,6.0,32,bw,99.7845769562,2019_may_28_1038,018,256,20,5,leyre,Experiment_EEG_version,20,
Living_Things,../experiment_stimuli/bw_bc_bl/Living_Things/Birds/penguin_10.jpg,Birds,0,penguin,0,50,50,61,182.594713828,nV_V,2,182.59954577,183.857354252,1,2,0.871961719124,184.749879635,1,1,0.150548836449,5,6.0,32,bw,99.7845769562,2019_may_28_1038,018,256,20,5,leyre,Experiment_EEG_version,20,
Nonliving_Things,../experiment_stimuli/bw_bc_bl/Nonliving_Things/Furniture/rocking-chair_12.jpg,Furniture,0,rocking-chair,0,51,51,69,186.633493332,nV_V,1,186.638462682,187.926205251,1,1,0.421157321893,188.367909398,3,0,0.0603515305556,5,6.0,32,bw,99.7845769562,2019_may_28_1038,018,256,20,5,leyre,Experiment_EEG_version,20,
Nonliving_Things,../experiment_stimuli/bw_bc_bl/Nonliving_Things/Furniture/wardrobe_21.jpg,Furniture,0,wardrobe,0,52,52,93,190.161161025,V_nV,2,190.167180476,191.423817231,1,2,0.491151601076,191.935517985,3,0,0.130530626746,5,8.0,32,bw,99.7845769562,2019_may_28_1038,018,256,20,5,leyre,Experiment_EEG_version,20,
Nonliving_Things,../experiment_stimuli/bw_bc_bl/Nonliving_Things/Kitchen_Uten/pot_20.jpg,Kitchen_Uten,0,pot,0,53,53,66,193.799066094,nV_V,1,193.803918024,195.05169147,1,1,0.591514788102,195.663758399,3,0,0.0603506809566,5,6.0,32,bw,99.7845769562,2019_may_28_1038,018,256,20,5,leyre,Experiment_EEG_version,20,
Nonliving_Things,../experiment_stimuli/bw_bc_bl/Nonliving_Things/Buildings/palace_1.jpg,Buildings,0,palace,0,54,54,58,197.457024469,V_nV,2,197.461997917,198.689601741,1,2,0.330954820616,199.041125937,1,1,0.21068202774,5,6.0,32,bw,99.7845769562,2019_may_28_1038,018,256,20,5,leyre,Experiment_EEG_version,20,
Living_Things,../experiment_stimuli/bw_bc_bl/Living_Things/Birds/goose_20.jpg,Birds,0,goose,0,55,55,34,200.984697699,V_nV,1,200.989558942,202.247345041,0,2,0.0904267840087,202.358318031,1,1,0.150547730969,5,6.0,32,bw,99.7845769562,2019_may_28_1038,018,256,20,5,leyre,Experiment_EEG_version,20,
Living_Things,../experiment_stimuli/bw_bc_bl/Living_Things/Insects/ladybird_16.jpg,Insects,0,ladybird,0,56,56,45,204.241775075,nV_V,2,204.246603033,205.534487814,0,1,0.641640754417,206.196686995,2,0,0.170595955336,5,6.0,32,bw,99.7845769562,2019_may_28_1038,018,256,20,5,leyre,Experiment_EEG_version,20,
Nonliving_Things,../experiment_stimuli/bw_bc_bl/Nonliving_Things/Buildings/castle_22.jpg,Buildings,0,castle,0,57,57,12,208.100158164,V_nV,2,208.105201106,209.382847963,1,2,0.541406377684,209.944798542,3,0,0.120503740385,5,6.5,32,bw,99.7845769562,2019_may_28_1038,018,256,20,5,leyre,Experiment_EEG_version,20,
Living_Things,../experiment_stimuli/bw_bc_bl/Living_Things/Animals/tiger_18.jpg,Animals,0,tiger,0,58,58,84,211.798201134,nV_V,2,211.803061204,213.050820289,1,2,0.581493675942,213.652857396,2,0,0.200651329244,5,6.5,32,bw,99.7845769562,2019_may_28_1038,018,256,20,5,leyre,Experiment_EEG_version,20,
Nonliving_Things,../experiment_stimuli/bw_bc_bl/Nonliving_Things/Buildings/factory_7.jpg,Buildings,0,factory,0,59,59,28,215.586434595,V_nV,2,215.59141722,216.829041318,1,2,0.030416459078,216.880007066,1,1,0.160580659052,5,6.0,32,bw,99.7845769562,2019_may_28_1038,018,256,20,5,leyre,Experiment_EEG_version,20,
Living_Things,../experiment_stimuli/bw_bc_bl/Living_Things/Marine_creatures/pomfret_13.jpg,Marine_creatures,0,pomfret,0,60,60,65,218.773360131,V_nV,1,218.778357002,220.046028152,0,2,0.330953729805,220.397528682,1,1,0.090421900386,5,7.5,32,bw,99.7845769562,2019_may_28_1038,018,256,20,5,leyre,Experiment_EEG_version,20,
Nonliving_Things,../experiment_stimuli/bw_bc_bl/Nonliving_Things/Furniture/armchair_20.jpg,Furniture,0,armchair,0,61,61,2,222.22087655,nV_V,1,222.225837242,223.503553703,1,1,0.591517178807,224.115623978,3,0,0.120481413556,5,6.0,32,bw,99.7845769562,2019_may_28_1038,018,256,20,5,leyre,Experiment_EEG_version,20,
Living_Things,../experiment_stimuli/bw_bc_bl/Living_Things/Animals/zebra_6.jpg,Animals,0,zebra,0,62,62,95,225.969025424,nV_V,2,225.975337852,227.231648841,0,1,0.230574690271,227.482773237,2,0,0.0503385383636,5,6.5,32,bw,99.7845769562,2019_may_28_1038,018,256,20,5,leyre,Experiment_EEG_version,20,
Nonliving_Things,../experiment_stimuli/bw_bc_bl/Nonliving_Things/Musical_Inst/saxophone_5.jpg,Musical_Inst,0,saxophone,0,63,63,72,229.266197496,nV_V,1,229.271282499,230.518802079,0,2,0.170598579338,230.709947244,1,1,0.0404381051194,5,6.0,32,bw,99.7845769562,2019_may_28_1038,018,256,20,5,leyre,Experiment_EEG_version,20,
Living_Things,../experiment_stimuli/bw_bc_bl/Living_Things/Animals/turtle_19.jpg,Animals,0,turtle,0,64,64,90,232.48316827,nV_V,2,232.490720083,233.745824292,0,1,0.691732785199,234.458089535,2,0,0.140526968986,5,7.5,32,bw,99.7845769562,2019_may_28_1038,018,256,20,5,leyre,Experiment_EEG_version,20,
Nonliving_Things,../experiment_stimuli/bw_bc_bl/Nonliving_Things/Kitchen_Uten/fondue_17.jpg,Kitchen_Uten,0,fondue,0,65,65,30,236.331542825,V_nV,2,236.33660335,237.584158171,1,2,0.531382183312,238.146118424,3,0,0.0904157089535,5,7.5,32,bw,99.7845769562,2019_may_28_1038,018,256,20,5,leyre,Experiment_EEG_version,20,
Nonliving_Things,../experiment_stimuli/bw_bc_bl/Nonliving_Things/Vehicles/ship_18.jpg,Vehicles,0,ship,0,66,66,76,239.969460814,V_nV,2,239.974499137,241.202025753,0,1,0.350992766209,241.573584051,2,0,0.100458475063,5,6.0,32,bw,99.7845769562,2019_may_28_1038,018,256,20,5,leyre,Experiment_EEG_version,20,
Living_Things,../experiment_stimuli/bw_bc_bl/Living_Things/Marine_creatures/lobster_11.jpg,Marine_creatures,0,lobster,0,67,67,49,243.406920092,V_nV,1,243.412003399,244.649520267,0,2,0.0403187798802,244.710374301,1,1,0.140550975688,5,6.0,32,bw,99.7845769562,2019_may_28_1038,018,256,20,5,leyre,Experiment_EEG_version,20,
Living_Things,../experiment_stimuli/bw_bc_bl/Living_Things/Birds/magpie_19.jpg,Birds,0,magpie,0,68,68,51,246.58383041,nV_V,2,246.588994171,247.856497958,1,2,0.270831643837,248.147869206,1,1,0.0403087721206,5,6.0,32,bw,99.7845769562,2019_may_28_1038,018,256,20,5,leyre,Experiment_EEG_version,20,
Nonliving_Things,../experiment_stimuli/bw_bc_bl/Nonliving_Things/Furniture/bed_9.jpg,Furniture,0,bed,0,69,69,5,249.921072604,nV_V,1,249.926126058,251.213792376,1,1,0.541410727426,251.775755587,3,0,0.130526453955,5,6.5,32,bw,99.7845769562,2019_may_28_1038,018,256,20,5,leyre,Experiment_EEG_version,20,
Living_Things,../experiment_stimuli/bw_bc_bl/Living_Things/Birds/raven_8.jpg,Birds,0,raven,0,70,70,67,253.63916095,nV_V,2,253.644191866,254.901809543,1,2,0.230737515027,255.153087411,1,1,0.120483402163,5,7.5,32,bw,99.7845769562,2019_may_28_1038,018,256,20,5,leyre,Experiment_EEG_version,20,
Nonliving_Things,../experiment_stimuli/bw_bc_bl/Nonliving_Things/Kitchen_Uten/saucepan_0.jpg,Kitchen_Uten,0,saucepan,0,71,71,71,257.006484213,nV_V,1,257.012527428,258.289172437,1,1,0.872126682661,259.181882043,3,0,0.260808723513,5,6.0,32,bw,99.7845769562,2019_may_28_1038,018,256,20,5,leyre,Experiment_EEG_version,20,
Living_Things,../experiment_stimuli/bw_bc_bl/Living_Things/Marine_creatures/sperm-whale_10.jpg,Marine_creatures,0,sperm-whale,0,72,72,80,261.175545709,nV_V,2,261.180616768,262.418148796,0,1,0.571475845762,263.010204475,3,0,0.170443630544,5,6.5,32,bw,99.7845769562,2019_may_28_1038,018,256,20,5,leyre,Experiment_EEG_version,20,
Living_Things,../experiment_stimuli/bw_bc_bl/Living_Things/Animals/armadillo_0.jpg,Animals,0,armadillo,0,73,73,1,264.913672816,V_nV,1,264.918844945,266.146252126,0,2,0.0403179223649,266.207111642,1,1,0.0603515417315,5,6.5,32,bw,99.7845769562,2019_may_28_1038,018,256,20,5,leyre,Experiment_EEG_version,20,
Nonliving_Things,../experiment_stimuli/bw_bc_bl/Nonliving_Things/Furniture/lectern_24.jpg,Furniture,0,lectern,0,74,74,47,268.000378779,V_nV,2,268.00681845,269.243002284,1,2,0.10047010635,269.364003551,1,1,0.110467245104,5,6.5,32,bw,99.7845769562,2019_may_28_1038,018,256,20,5,leyre,Experiment_EEG_version,20,
Living_Things,../experiment_stimuli/bw_bc_bl/Living_Things/Marine_creatures/killer-whale_22.jpg,Marine_creatures,0,killer-whale,0,75,75,43,271.207352463,V_nV,1,271.212694514,272.470018993,0,2,0.801974240225,273.292538036,2,0,0.230724425055,5,6.0,32,bw,99.7845769562,2019_may_28_1038,018,256,20,5,leyre,Experiment_EEG_version,20,
Living_Things,../experiment_stimuli/bw_bc_bl/Living_Things/Birds/rooster_5.jpg,Birds,0,rooster,0,76,76,70,275.25615553,nV_V,2,275.261467722,276.49876481,0,1,0.470865203766,276.990567846,2,0,0.0802417267114,5,6.0,32,bw,99.7845769562,2019_may_28_1038,018,256,20,5,leyre,Experiment_EEG_version,20,
Living_Things,../experiment_stimuli/bw_bc_bl/Living_Things/Marine_creatures/shark_20.jpg,Marine_creatures,0,shark,0,77,77,75,278.803865632,V_nV,1,278.809048028,280.036448212,0,2,0.31089975778,280.367891466,1,1,0.0403089490719,5,6.0,32,bw,99.7845769562,2019_may_28_1038,018,256,20,5,leyre,Experiment_EEG_version,20,
Nonliving_Things,../experiment_stimuli/bw_bc_bl/Nonliving_Things/Vehicles/van_19.jpg,Vehicles,0,van,0,78,78,91,282.141133127,V_nV,2,282.146337905,283.393747281,1,2,0.451206560712,283.865514525,3,0,0.140546844341,5,7.0,32,bw,99.7845769562,2019_may_28_1038,018,256,20,5,leyre,Experiment_EEG_version,20,
Nonliving_Things,../experiment_stimuli/bw_bc_bl/Nonliving_Things/Buildings/cathedral_16.jpg,Buildings,0,cathedral,0,79,79,14,285.738943559,nV_V,1,285.744099467,286.971532226,1,1,0.371041035512,287.363124453,1,1,0.170591985574,5,6.5,32,bw,99.7845769562,2019_may_28_1038,018,256,20,5,leyre,Experiment_EEG_version,20,
Living_Things,../experiment_stimuli/bw_bc_bl/Living_Things/Birds/pigeon_17.jpg,Birds,0,pigeon,0,80,80,63,289.276647788,nV_V,2,289.281836673,290.539285254,0,1,0.0703867021948,290.630236076,1,1,0.581329524051,5,6.0,32,bw,99.7845769562,2019_may_28_1038,018,256,20,5,leyre,Experiment_EEG_version,20,
Nonliving_Things,../experiment_stimuli/bw_bc_bl/Nonliving_Things/Vehicles/tractor_22.jpg,Vehicles,0,tractor,0,81,81,86,292.944608991,V_nV,2,292.949944516,294.21727764,1,2,0.521357939346,294.759182548,3,0,0.130508878967,5,6.0,32,bw,99.7845769562,2019_may_28_1038,018,256,20,5,leyre,Experiment_EEG_version,20,
Nonliving_Things,../experiment_stimuli/bw_bc_bl/Nonliving_Things/Furniture/lamp_9.jpg,Furniture,0,lamp,0,82,82,46,296.622608489,nV_V,1,296.627748442,297.865208216,0,2,0.0904465955682,297.976231408,1,1,0.120484511601,5,6.5,32,bw,99.7845769562,2019_may_28_1038,018,256,20,5,leyre,Experiment_EEG_version,20,
Nonliving_Things,../experiment_stimuli/bw_bc_bl/Nonliving_Things/Furniture/bookcase_2.jpg,Furniture,0,bookcase,0,83,83,8,299.829581621,V_nV,2,299.837871077,301.092228711,0,1,1.11266743694,302.225464868,2,0,0.681711199228,5,7.0,32,bw,99.7845769562,2019_may_28_1038,018,256,20,5,leyre,Experiment_EEG_version,20,
Nonliving_Things,../experiment_stimuli/bw_bc_bl/Nonliving_Things/Furniture/filling-cabinet_19.jpg,Furniture,0,filling-cabinet,0,84,84,29,304.640046671,V_nV,2,304.645241946,305.892662378,1,2,0.451204913901,306.36441037,3,0,0.140522510279,5,7.5,32,bw,99.7845769562,2019_may_28_1038,018,256,20,5,leyre,Experiment_EEG_version,20,
Living_Things,../experiment_stimuli/bw_bc_bl/Living_Things/Birds/partridge_23.jpg,Birds,0,partridge,0,85,85,59,308.237857025,nV_V,2,308.243268135,309.470446308,0,1,0.0202831872739,309.511274701,1,1,0.551417350769,5,6.5,32,bw,99.7845769562,2019_may_28_1038,018,256,20,5,leyre,Experiment_EEG_version,20,
Nonliving_Things,../experiment_stimuli/bw_bc_bl/Nonliving_Things/Kitchen_Uten/small-saucepan_13.jpg,Kitchen_Uten,0,small-saucepan,0,86,86,77,311.805624004,nV_V,1,311.811000754,313.068260384,1,1,0.561459951568,313.650306939,2,0,0.110464970581,5,6.5,32,bw,99.7845769562,2019_may_28_1038,018,256,20,5,leyre,Experiment_EEG_version,20,
Living_Things,../experiment_stimuli/bw_bc_bl/Living_Things/Animals/cheetah_9.jpg,Animals,0,cheetah,0,87,87,16,315.493652449,nV_V,2,315.499110405,316.736233424,1,2,0.250770750456,317.008291697,1,1,0.0703926875722,5,6.0,32,bw,99.7845769562,2019_may_28_1038,018,256,20,5,leyre,Experiment_EEG_version,20,
Living_Things,../experiment_stimuli/bw_bc_bl/Living_Things/Animals/lynx_24.jpg,Animals,0,lynx,0,88,88,50,318.810858006,V_nV,1,318.816332762,320.073493554,1,1,0.461253792513,320.555314819,2,0,0.170587252127,5,6.0,32,bw,99.7845769562,2019_may_28_1038,018,256,20,5,leyre,Experiment_EEG_version,20,
Living_Things,../experiment_stimuli/bw_bc_bl/Living_Things/Animals/elephant_9.jpg,Animals,0,elephant,0,89,89,27,322.458777232,nV_V,2,322.464219346,323.721422506,1,2,0.611558083678,324.353519825,3,0,0.0904211902525,5,6.0,32,bw,99.7845769562,2019_may_28_1038,018,256,20,5,leyre,Experiment_EEG_version,20,
Nonliving_Things,../experiment_stimuli/bw_bc_bl/Nonliving_Things/Buildings/church_20.jpg,Buildings,0,church,0,90,90,17,326.17686134,nV_V,1,326.182413099,327.409437504,0,2,0.0501787625253,327.480199291,1,1,0.0202650330029,5,6.0,32,bw,99.7845769562,2019_may_28_1038,018,256,20,5,leyre,Experiment_EEG_version,20,
Living_Things,../experiment_stimuli/bw_bc_bl/Living_Things/Marine_creatures/manatee_13.jpg,Marine_creatures,0,manatee,0,91,91,52,329.233518417,nV_V,2,329.239046632,330.486131448,1,2,0.511850865092,331.01852741,2,0,0.200651716907,5,6.0,32,bw,99.7845769562,2019_may_28_1038,018,256,20,5,leyre,Experiment_EEG_version,20,
Living_Things,../experiment_stimuli/bw_bc_bl/Living_Things/Marine_creatures/crab_18.jpg,Marine_creatures,0,crab,0,92,92,21,332.951609582,nV_V,2,332.957314298,334.194197486,1,2,0.371038152371,334.585788457,2,0,0.180626330432,5,6.5,32,bw,99.7845769562,2019_may_28_1038,018,256,20,5,leyre,Experiment_EEG_version,20,
Nonliving_Things,../experiment_stimuli/bw_bc_bl/Nonliving_Things/Furniture/table_20.jpg,Furniture,0,table,0,93,93,81,336.499303567,V_nV,2,336.505015655,337.731889599,1,2,0.811997431098,338.564440123,1,1,0.110456357943,5,6.0,32,bw,99.7845769562,2019_may_28_1038,018,256,20,5,leyre,Experiment_EEG_version,20,
Living_Things,../experiment_stimuli/bw_bc_bl/Living_Things/Birds/goldfinch_10.jpg,Birds,0,goldfinch,0,94,94,33,340.407800806,nV_V,2,340.413502927,341.670455535,1,2,0.42114949855,342.112132961,2,0,0.200661784038,5,6.5,32,bw,99.7845769562,2019_may_28_1038,018,256,20,5,leyre,Experiment_EEG_version,20,
Nonliving_Things,../experiment_stimuli/bw_bc_bl/Nonliving_Things/Buildings/house_26.jpg,Buildings,0,house,0,95,95,41,344.045702127,V_nV,2,344.051232093,345.298329868,1,2,0.481272506062,345.800162839,3,0,0.150572738145,5,6.0,32,bw,99.7845769562,2019_may_28_1038,018,256,20,5,leyre,Experiment_EEG_version,20,
