category,probe_path,subcategory,fixation_duration,label,trials.thisRepN,trials.thisTrialN,trials.thisN,trials.thisIndex,image_onset_time,response_window,correctAns,probe_onset,discrim_resptime,response.corr,response.keys,response.rt,visible_resptime,visible.keys,visible.corr,visible.rt,probeFrames,jitter2,n_square,experiment_color,frameRate,date,session,image_size,premask_dur,probeFrames,participant,expName,postmask_dur,
Living_Things,../experiment_stimuli/bw_bc_bl/Living_Things/Birds/owl_18.jpg,Birds,0,owl,0,0,0,57,3.71594417305,nV_V,2,3.73889207747,4.99862665625,1,2,0.361023073841,5.39049281861,1,1,0.140517900873,5,6.0,32,bw,99.7810809878,2019_may_13_1647,008,256,20,5,leyre,Experiment_EEG_version,20,
Living_Things,../experiment_stimuli/bw_bc_bl/Living_Things/Animals/cow_21.jpg,Animals,0,cow,0,1,1,20,7.26365278155,nV_V,2,7.26847796811,8.54634359945,0,1,0.451217748399,9.01811695215,3,0,0.340959030611,5,6.5,32,bw,99.7810809878,2019_may_13_1647,008,256,20,5,leyre,Experiment_EEG_version,20,
Nonliving_Things,../experiment_stimuli/bw_bc_bl/Nonliving_Things/Furniture/chair_13.jpg,Furniture,0,chair,0,2,2,15,11.0919709131,nV_V,1,11.0970285248,12.35461739,0,2,0.230723398505,12.6058891337,1,1,0.200659103692,5,6.0,32,bw,99.7810809878,2019_may_13_1647,008,256,20,5,leyre,Experiment_EEG_version,20,
Living_Things,../experiment_stimuli/bw_bc_bl/Living_Things/Animals/lioness_12.jpg,Animals,0,lioness,0,3,3,48,14.5394661187,V_nV,1,14.5444461977,15.8121336816,1,1,0.20065975032,16.0333476824,1,1,1.05252147914,5,7.5,32,bw,99.7810809878,2019_may_13_1647,008,256,20,5,leyre,Experiment_EEG_version,20,
Nonliving_Things,../experiment_stimuli/bw_bc_bl/Nonliving_Things/Furniture/table_22.jpg,Furniture,0,table,0,4,4,81,18.8187900277,V_nV,2,18.8236537926,20.111479334,1,2,0.411122469115,20.5431509037,1,1,0.140525450057,5,6.0,32,bw,99.7810809878,2019_may_13_1647,008,256,20,5,leyre,Experiment_EEG_version,20,
Nonliving_Things,../experiment_stimuli/bw_bc_bl/Nonliving_Things/Furniture/filling-cabinet_10.jpg,Furniture,0,filling-cabinet,0,5,5,29,22.41658375,nV_V,1,22.4213651927,23.7293379719,1,1,0.721787016257,24.4716805546,3,0,0.21068543772,5,6.5,32,bw,99.7810809878,2019_may_13_1647,008,256,20,5,leyre,Experiment_EEG_version,20,
Nonliving_Things,../experiment_stimuli/bw_bc_bl/Nonliving_Things/Vehicles/ship_0.jpg,Vehicles,0,ship,0,6,6,76,26.4152702797,V_nV,2,26.420174826,27.7079946607,1,2,0.491299572866,28.219862157,3,0,0.170595947828,5,6.0,32,bw,99.7810809878,2019_may_13_1647,008,256,20,5,leyre,Experiment_EEG_version,20,
Living_Things,../experiment_stimuli/bw_bc_bl/Living_Things/Animals/tiger_8.jpg,Animals,0,tiger,0,7,7,84,30.1233323701,V_nV,1,30.1289510752,31.385981678,1,1,0.481267536117,31.8877963484,2,0,0.220690542192,5,7.0,32,bw,99.7810809878,2019_may_13_1647,008,256,20,5,leyre,Experiment_EEG_version,20,
Living_Things,../experiment_stimuli/bw_bc_bl/Living_Things/Animals/cat_18.jpg,Animals,0,cat,0,8,8,13,33.8414159146,V_nV,1,33.8462483906,35.0940448737,1,1,0.48127347586,35.5958515328,2,0,0.180667882669,5,6.0,32,bw,99.7810809878,2019_may_13_1647,008,256,20,5,leyre,Experiment_EEG_version,20,
Living_Things,../experiment_stimuli/bw_bc_bl/Living_Things/Animals/tapir_5.jpg,Animals,0,tapir,0,9,9,82,37.5093888236,nV_V,2,37.5141792964,38.751997208,1,2,0.0102515448816,38.7827897145,1,1,0.120480534097,5,6.0,32,bw,99.7810809878,2019_may_13_1647,008,256,20,5,leyre,Experiment_EEG_version,20,
Nonliving_Things,../experiment_stimuli/bw_bc_bl/Nonliving_Things/Furniture/bookcase_5.jpg,Furniture,0,bookcase,0,10,10,8,40.6361893324,nV_V,1,40.6411397542,41.8888108857,1,1,0.280835015641,42.190185186,1,1,0.240767281211,5,6.0,32,bw,99.7810809878,2019_may_13_1647,008,256,20,5,leyre,Experiment_EEG_version,20,
Living_Things,../experiment_stimuli/bw_bc_bl/Living_Things/Birds/kiwi_26.jpg,Birds,0,kiwi,0,11,11,44,44.1638583973,nV_V,2,44.1686872118,45.4265027354,1,2,0.992386362515,46.4394568864,2,0,0.210684242251,5,6.0,32,bw,99.7810809878,2019_may_13_1647,008,256,20,5,leyre,Experiment_EEG_version,20,
Nonliving_Things,../experiment_stimuli/bw_bc_bl/Nonliving_Things/Musical_Inst/guitar_0.jpg,Musical_Inst,0,guitar,0,12,12,36,48.3830247809,V_nV,2,48.3878509975,49.6356521947,1,2,0.641617232119,50.2978203656,3,0,0.230738300888,5,6.5,32,bw,99.7810809878,2019_may_13_1647,008,256,20,5,leyre,Experiment_EEG_version,20,
Living_Things,../experiment_stimuli/bw_bc_bl/Living_Things/Insects/butterfly_11.jpg,Insects,0,butterfly,0,13,13,10,52.2614569237,V_nV,1,52.26635991,53.4940405157,0,2,0.310926960548,53.825524603,1,1,0.20068627625,5,6.5,32,bw,99.7810809878,2019_may_13_1647,008,256,20,5,leyre,Experiment_EEG_version,20,
Nonliving_Things,../experiment_stimuli/bw_bc_bl/Nonliving_Things/Furniture/bedside-table_18.jpg,Furniture,0,bedside-table,0,14,14,6,55.7590570472,nV_V,1,55.7639752284,57.0016643188,0,2,0.340960985515,57.3631670023,1,1,0.160591955704,5,6.0,32,bw,99.7810809878,2019_may_13_1647,008,256,20,5,leyre,Experiment_EEG_version,20,
Living_Things,../experiment_stimuli/bw_bc_bl/Living_Things/Birds/raven_2.jpg,Birds,0,raven,0,15,15,67,59.2566775535,nV_V,2,59.2615070633,60.5293263387,1,2,0.320922268555,60.8708066738,1,1,0.0804000741336,5,6.0,32,bw,99.7810809878,2019_may_13_1647,008,256,20,5,leyre,Experiment_EEG_version,20,
Living_Things,../experiment_stimuli/bw_bc_bl/Living_Things/Marine_creatures/shark_1.jpg,Marine_creatures,0,shark,0,16,16,75,62.6841133471,V_nV,1,62.6889583379,63.9868780354,1,1,0.571468045237,64.5788575012,3,0,0.270836395852,5,6.0,32,bw,99.7810809878,2019_may_13_1647,008,256,20,5,leyre,Experiment_EEG_version,20,
Nonliving_Things,../experiment_stimuli/bw_bc_bl/Nonliving_Things/Tools/hammer_21.jpg,Tools,0,hammer,0,17,17,37,66.5825813272,V_nV,2,66.5874822645,67.8552523677,0,1,0.751895205583,68.6277284024,1,1,0.180613323115,5,6.0,32,bw,99.7810809878,2019_may_13_1647,008,256,20,5,leyre,Experiment_EEG_version,20,
Living_Things,../experiment_stimuli/bw_bc_bl/Living_Things/Marine_creatures/manatee_23.jpg,Marine_creatures,0,manatee,0,18,18,52,70.5411878294,nV_V,2,70.5476422557,71.8238779821,1,2,0.340966060641,72.1853949209,1,1,0.200649761886,5,7.0,32,bw,99.7810809878,2019_may_13_1647,008,256,20,5,leyre,Experiment_EEG_version,20,
Nonliving_Things,../experiment_stimuli/bw_bc_bl/Nonliving_Things/Vehicles/tractor_8.jpg,Vehicles,0,tractor,0,19,19,86,74.1189647857,V_nV,2,74.12380116,75.4217005872,1,2,0.381052448589,75.8232956477,3,0,0.110462019511,5,6.0,32,bw,99.7810809878,2019_may_13_1647,008,256,20,5,leyre,Experiment_EEG_version,20,
Nonliving_Things,../experiment_stimuli/bw_bc_bl/Nonliving_Things/Musical_Inst/piano__0.jpg,Musical_Inst,0,piano,0,20,20,62,77.6666768342,V_nV,2,77.6716326429,78.9493654606,1,2,0.200661866984,79.1705811797,1,1,0.0403270991519,5,7.5,32,bw,99.7810809878,2019_may_13_1647,008,256,20,5,leyre,Experiment_EEG_version,20,
Nonliving_Things,../experiment_stimuli/bw_bc_bl/Nonliving_Things/Furniture/wardrobe_26.jpg,Furniture,0,wardrobe,0,21,21,93,80.9438403965,V_nV,2,80.9487479653,82.2565656264,1,2,0.381054103083,82.6581627585,3,0,0.130525190791,5,7.0,32,bw,99.7810809878,2019_may_13_1647,008,256,20,5,leyre,Experiment_EEG_version,20,
Nonliving_Things,../experiment_stimuli/bw_bc_bl/Nonliving_Things/Buildings/factory_4.jpg,Buildings,0,factory,0,22,22,28,84.5215791879,nV_V,1,84.5265195232,85.8142929224,1,1,0.320928072964,86.1557601488,3,0,0.100444606564,5,6.0,32,bw,99.7810809878,2019_may_13_1647,008,256,20,5,leyre,Experiment_EEG_version,20,
Living_Things,../experiment_stimuli/bw_bc_bl/Living_Things/Birds/sparrow_24.jpg,Birds,0,sparrow,0,23,23,79,87.9891085728,V_nV,1,87.9954582151,89.2617869214,1,1,0.501312237582,89.7836601728,3,0,0.180612229335,5,7.0,32,bw,99.7810809878,2019_may_13_1647,008,256,20,5,leyre,Experiment_EEG_version,20,
Nonliving_Things,../experiment_stimuli/bw_bc_bl/Nonliving_Things/Furniture/armchair_13.jpg,Furniture,0,armchair,0,24,24,2,91.6971697384,nV_V,1,91.7019993273,92.9397815062,1,1,0.581491299847,93.5418254368,2,0,0.250759600312,5,7.0,32,bw,99.7810809878,2019_may_13_1647,008,256,20,5,leyre,Experiment_EEG_version,20,
Living_Things,../experiment_stimuli/bw_bc_bl/Living_Things/Animals/turtle_7.jpg,Animals,0,turtle,0,25,25,90,95.5254966141,V_nV,1,95.5304095322,96.7580782284,1,1,0.170599425386,96.9492358931,2,0,0.1204831918,5,6.0,32,bw,99.7810809878,2019_may_13_1647,008,256,20,5,leyre,Experiment_EEG_version,20,
Living_Things,../experiment_stimuli/bw_bc_bl/Living_Things/Birds/duck_12.jpg,Birds,0,duck,0,26,26,26,98.8026301918,nV_V,2,98.8075009076,100.035201434,1,2,0.0102455525193,100.076005166,1,1,0.17058503459,5,6.5,32,bw,99.7810809878,2019_may_13_1647,008,256,20,5,leyre,Experiment_EEG_version,20,
Nonliving_Things,../experiment_stimuli/bw_bc_bl/Nonliving_Things/Buildings/palace_16.jpg,Buildings,0,palace,0,27,27,58,101.97952772,nV_V,1,101.985280645,103.232147089,0,2,0.511332804745,103.764077016,1,1,0.180667457695,5,6.5,32,bw,99.7810809878,2019_may_13_1647,008,256,20,5,leyre,Experiment_EEG_version,20,
Nonliving_Things,../experiment_stimuli/bw_bc_bl/Nonliving_Things/Furniture/lectern_15.jpg,Furniture,0,lectern,0,28,28,47,105.677574067,nV_V,1,105.683242504,106.960255569,1,1,0.501302508696,107.48210587,2,0,0.200655844528,5,7.5,32,bw,99.7810809878,2019_may_13_1647,008,256,20,5,leyre,Experiment_EEG_version,20,
Living_Things,../experiment_stimuli/bw_bc_bl/Living_Things/Birds/ostrich_15.jpg,Birds,0,ostrich,0,29,29,56,109.415693456,nV_V,2,109.4206296,110.688368481,1,2,0.571510649694,111.280427137,2,0,0.200653306791,5,7.0,32,bw,99.7810809878,2019_may_13_1647,008,256,20,5,leyre,Experiment_EEG_version,20,
Living_Things,../experiment_stimuli/bw_bc_bl/Living_Things/Marine_creatures/whale_8.jpg,Marine_creatures,0,whale,0,30,30,94,113.213944871,V_nV,1,113.21872925,114.476590785,1,1,0.471264983644,114.968418139,2,0,0.18060968013,5,7.0,32,bw,99.7810809878,2019_may_13_1647,008,256,20,5,leyre,Experiment_EEG_version,20,
Nonliving_Things,../experiment_stimuli/bw_bc_bl/Nonliving_Things/Furniture/rocking-chair_3.jpg,Furniture,0,rocking-chair,0,31,31,69,116.881915566,nV_V,1,116.88866312,118.134546157,1,1,0.541399949172,118.696485086,3,0,0.160558042524,5,6.0,32,bw,99.7810809878,2019_may_13_1647,008,256,20,5,leyre,Experiment_EEG_version,20,
Living_Things,../experiment_stimuli/bw_bc_bl/Living_Things/Animals/zebra_25.jpg,Animals,0,zebra,0,32,32,95,120.589981964,nV_V,2,120.59498257,121.822560203,0,1,0.200656178931,122.043775847,1,1,0.73180712451,5,6.0,32,bw,99.7810809878,2019_may_13_1647,008,256,20,5,leyre,Experiment_EEG_version,20,
Nonliving_Things,../experiment_stimuli/bw_bc_bl/Nonliving_Things/Kitchen_Uten/frying-pan_19.jpg,Kitchen_Uten,0,frying-pan,0,33,33,31,124.508497661,V_nV,2,124.513406091,125.771144563,1,2,0.601368349919,126.393064002,3,0,0.130551791925,5,6.5,32,bw,99.7810809878,2019_may_13_1647,008,256,20,5,leyre,Experiment_EEG_version,20,
Nonliving_Things,../experiment_stimuli/bw_bc_bl/Nonliving_Things/Tools/axe_15.jpg,Tools,0,axe,0,34,34,3,128.256642941,V_nV,2,128.263518049,129.499259893,1,2,0.0403157047695,129.560106183,1,1,0.250603302149,5,6.0,32,bw,99.7810809878,2019_may_13_1647,008,256,20,5,leyre,Experiment_EEG_version,20,
Living_Things,../experiment_stimuli/bw_bc_bl/Living_Things/Birds/hummingbird_23.jpg,Birds,0,hummingbird,0,35,35,42,131.543803157,nV_V,2,131.549707193,132.796415883,1,2,0.350991176267,133.167940322,1,1,0.170587617089,5,7.0,32,bw,99.7810809878,2019_may_13_1647,008,256,20,5,leyre,Experiment_EEG_version,20,
Living_Things,../experiment_stimuli/bw_bc_bl/Living_Things/Birds/goldfinch_11.jpg,Birds,0,goldfinch,0,36,36,33,135.071459252,V_nV,1,135.077670453,136.354147551,0,2,0.28084380849,136.655545178,1,1,0.100437655696,5,6.0,32,bw,99.7810809878,2019_may_13_1647,008,256,20,5,leyre,Experiment_EEG_version,20,
Nonliving_Things,../experiment_stimuli/bw_bc_bl/Nonliving_Things/Kitchen_Uten/fondue_7.jpg,Kitchen_Uten,0,fondue,0,37,37,30,138.488891877,V_nV,2,138.493696417,139.781624987,1,2,0.401095440087,140.203255843,3,0,0.150546588295,5,6.0,32,bw,99.7810809878,2019_may_13_1647,008,256,20,5,leyre,Experiment_EEG_version,20,
Nonliving_Things,../experiment_stimuli/bw_bc_bl/Nonliving_Things/Buildings/house_12.jpg,Buildings,0,house,0,38,38,41,142.086712456,nV_V,1,142.091750512,143.359379229,1,1,0.481111752801,143.861047627,3,0,0.160565373546,5,6.0,32,bw,99.7810809878,2019_may_13_1647,008,256,20,5,leyre,Experiment_EEG_version,20,
Nonliving_Things,../experiment_stimuli/bw_bc_bl/Nonliving_Things/Vehicles/plane_19.jpg,Vehicles,0,plane,0,39,39,64,145.754687831,nV_V,1,145.760600487,147.007305846,0,2,0.561454263458,147.589305989,3,0,0.220546123222,5,6.0,32,bw,99.7810809878,2019_may_13_1647,008,256,20,5,leyre,Experiment_EEG_version,20,
Nonliving_Things,../experiment_stimuli/bw_bc_bl/Nonliving_Things/Furniture/sofa_16.jpg,Furniture,0,sofa,0,40,40,78,149.542916514,nV_V,1,149.547798685,150.775495549,1,1,0.260856575973,151.056892651,2,0,0.0302884233533,5,6.0,32,bw,99.7810809878,2019_may_13_1647,008,256,20,5,leyre,Experiment_EEG_version,20,
Living_Things,../experiment_stimuli/bw_bc_bl/Living_Things/Animals/hippopotamus_25.jpg,Animals,0,hippopotamus,0,41,41,39,152.820043441,V_nV,1,152.824856169,154.052620778,0,2,0.300877743633,154.37405708,1,1,0.130500578205,5,6.0,32,bw,99.7810809878,2019_may_13_1647,008,256,20,5,leyre,Experiment_EEG_version,20,
Nonliving_Things,../experiment_stimuli/bw_bc_bl/Nonliving_Things/Furniture/bed_15.jpg,Furniture,0,bed,0,42,42,5,156.23746657,nV_V,1,156.242254791,157.500134678,0,2,0.300879074377,157.821550068,1,1,0.200645908364,5,6.0,32,bw,99.7810809878,2019_may_13_1647,008,256,20,5,leyre,Experiment_EEG_version,20,
Living_Things,../experiment_stimuli/bw_bc_bl/Living_Things/Marine_creatures/lobster_5.jpg,Marine_creatures,0,lobster,0,43,43,49,159.755117,V_nV,1,159.759996592,161.027783575,0,2,0.350997082074,161.399332347,1,1,0.230726552836,5,7.5,32,bw,99.7810809878,2019_may_13_1647,008,256,20,5,leyre,Experiment_EEG_version,20,
Nonliving_Things,../experiment_stimuli/bw_bc_bl/Nonliving_Things/Kitchen_Uten/teapot_18.jpg,Kitchen_Uten,0,teapot,0,44,44,83,163.362952778,nV_V,1,163.367909613,164.665689437,1,1,0.260810200707,164.947061557,1,1,0.932253907959,5,6.0,32,bw,99.7810809878,2019_may_13_1647,008,256,20,5,leyre,Experiment_EEG_version,20,
Nonliving_Things,../experiment_stimuli/bw_bc_bl/Nonliving_Things/Buildings/cathedral_2.jpg,Buildings,0,cathedral,0,45,45,14,167.612190964,nV_V,1,167.618134886,168.944994928,1,1,0.62157364696,169.587107026,2,0,0.391068166238,5,6.5,32,bw,99.7810809878,2019_may_13_1647,008,256,20,5,leyre,Experiment_EEG_version,20,
Living_Things,../experiment_stimuli/bw_bc_bl/Living_Things/Animals/horse_3.jpg,Animals,0,horse,0,46,46,40,171.711105686,V_nV,1,171.716388716,173.033894016,1,1,0.531400667736,173.585821371,2,0,0.230723330867,5,8.0,32,bw,99.7810809878,2019_may_13_1647,008,256,20,5,leyre,Experiment_EEG_version,20,
Living_Things,../experiment_stimuli/bw_bc_bl/Living_Things/Birds/goose_26.jpg,Birds,0,goose,0,47,47,34,175.549481248,nV_V,2,175.554322701,176.862219816,1,2,0.601531802269,177.484278712,3,0,0.190632051846,5,6.0,32,bw,99.7810809878,2019_may_13_1647,008,256,20,5,leyre,Experiment_EEG_version,20,
Nonliving_Things,../experiment_stimuli/bw_bc_bl/Nonliving_Things/Buildings/church_5.jpg,Buildings,0,church,0,48,48,17,179.407838686,nV_V,1,179.412687433,180.690545523,1,1,0.391074230196,181.102171503,3,0,0.190630401252,5,7.0,32,bw,99.7810809878,2019_may_13_1647,008,256,20,5,leyre,Experiment_EEG_version,20,
Living_Things,../experiment_stimuli/bw_bc_bl/Living_Things/Animals/rhino_4.jpg,Animals,0,rhino,0,49,49,68,183.025696742,V_nV,1,183.030636532,184.28834335,1,1,1.06253110984,185.371433294,2,0,0.130556277058,5,6.0,32,bw,99.7810809878,2019_may_13_1647,008,256,20,5,leyre,Experiment_EEG_version,20,
Nonliving_Things,../experiment_stimuli/bw_bc_bl/Nonliving_Things/Vehicles/car_26.jpg,Vehicles,0,car,0,50,50,11,187.234852426,nV_V,1,187.240803514,188.487475475,0,2,0.781924707466,189.289953712,2,0,0.190474760835,5,6.0,32,bw,99.7810809878,2019_may_13_1647,008,256,20,5,leyre,Experiment_EEG_version,20,
Living_Things,../experiment_stimuli/bw_bc_bl/Living_Things/Birds/penguin_11.jpg,Birds,0,penguin,0,51,51,61,191.213494405,nV_V,2,191.219617896,192.456103345,1,2,0.601539873751,193.078218526,1,1,0.721809805487,5,7.0,32,bw,99.7810809878,2019_may_13_1647,008,256,20,5,leyre,Experiment_EEG_version,20,
Nonliving_Things,../experiment_stimuli/bw_bc_bl/Nonliving_Things/Kitchen_Uten/small-saucepan_23.jpg,Kitchen_Uten,0,small-saucepan,0,52,52,77,195.532888315,V_nV,2,195.537739753,196.785556461,1,2,0.240744424344,197.046817735,1,1,0.10043758055,5,6.0,32,bw,99.7810809878,2019_may_13_1647,008,256,20,5,leyre,Experiment_EEG_version,20,
Nonliving_Things,../experiment_stimuli/bw_bc_bl/Nonliving_Things/Kitchen_Uten/coking-pot_10.jpg,Kitchen_Uten,0,coking-pot,0,53,53,18,198.880162501,V_nV,2,198.886122453,200.142817298,1,2,0.280833955505,200.444208955,1,1,0.250787791796,5,6.5,32,bw,99.7810809878,2019_may_13_1647,008,256,20,5,leyre,Experiment_EEG_version,20,
Living_Things,../experiment_stimuli/bw_bc_bl/Living_Things/Birds/hen_24.jpg,Birds,0,hen,0,54,54,38,202.427874448,nV_V,2,202.435089322,203.710562841,0,1,0.481293953198,204.212422639,1,1,0.240584381507,5,6.0,32,bw,99.7810809878,2019_may_13_1647,008,256,20,5,leyre,Experiment_EEG_version,20,
Living_Things,../experiment_stimuli/bw_bc_bl/Living_Things/Birds/toucan_5.jpg,Birds,0,toucan,0,55,55,85,206.1860519,V_nV,1,206.190907409,207.498801325,0,2,0.35098773631,207.870338767,1,1,0.170589801448,5,6.5,32,bw,99.7810809878,2019_may_13_1647,008,256,20,5,leyre,Experiment_EEG_version,20,
Nonliving_Things,../experiment_stimuli/bw_bc_bl/Nonliving_Things/Kitchen_Uten/pot_25.jpg,Kitchen_Uten,0,pot,0,56,56,66,209.773843532,V_nV,2,209.778984086,211.106641828,1,2,0.451045758382,211.578248145,3,0,0.120326942299,5,6.0,32,bw,99.7810809878,2019_may_13_1647,008,256,20,5,leyre,Experiment_EEG_version,20,
Nonliving_Things,../experiment_stimuli/bw_bc_bl/Nonliving_Things/Vehicles/train_1.jpg,Vehicles,0,train,0,57,57,87,213.431791675,V_nV,2,213.436671977,214.734533897,1,2,0.350989134749,215.106080486,3,0,0.17058860953,5,6.0,32,bw,99.7810809878,2019_may_13_1647,008,256,20,5,leyre,Experiment_EEG_version,20,
Nonliving_Things,../experiment_stimuli/bw_bc_bl/Nonliving_Things/Vehicles/motorbike_3.jpg,Vehicles,0,motorbike,0,58,58,54,217.009575296,nV_V,1,217.014517289,218.28224054,1,1,0.551420256787,218.854220769,3,0,0.140578610764,5,6.5,32,bw,99.7810809878,2019_may_13_1647,008,256,20,5,leyre,Experiment_EEG_version,20,
Living_Things,../experiment_stimuli/bw_bc_bl/Living_Things/Marine_creatures/dolphin_14.jpg,Marine_creatures,0,dolphin,0,59,59,23,220.727656273,V_nV,1,220.732598251,221.980282041,1,1,0.350988826889,222.35181125,2,0,0.0904055513092,5,6.5,32,bw,99.7810809878,2019_may_13_1647,008,256,20,5,leyre,Experiment_EEG_version,20,
Nonliving_Things,../experiment_stimuli/bw_bc_bl/Nonliving_Things/Musical_Inst/violin_19.jpg,Musical_Inst,0,violin,0,60,60,92,224.17514534,V_nV,2,224.180131137,225.417768311,1,2,0.200677565648,225.639030954,1,1,0.100463237904,5,6.5,32,bw,99.7810809878,2019_may_13_1647,008,256,20,5,leyre,Experiment_EEG_version,20,
Living_Things,../experiment_stimuli/bw_bc_bl/Living_Things/Marine_creatures/sperm-whale_24.jpg,Marine_creatures,0,sperm-whale,0,61,61,80,227.472317244,nV_V,2,227.47836224,228.724945236,1,2,0.721797136473,229.467325676,1,1,0.350985484605,5,6.0,32,bw,99.7810809878,2019_may_13_1647,008,256,20,5,leyre,Experiment_EEG_version,20,
Nonliving_Things,../experiment_stimuli/bw_bc_bl/Nonliving_Things/Musical_Inst/tuba_18.jpg,Musical_Inst,0,tuba,0,62,62,89,231.551187764,V_nV,2,231.556155847,232.823851256,1,2,0.591515746666,233.435911046,3,0,0.130551506241,5,6.0,32,bw,99.7810809878,2019_may_13_1647,008,256,20,5,leyre,Experiment_EEG_version,20,
Nonliving_Things,../experiment_stimuli/bw_bc_bl/Nonliving_Things/Vehicles/boat_22.jpg,Vehicles,0,boat,0,63,63,7,235.299331468,V_nV,2,235.304163474,236.541937093,1,2,0.280677818402,236.843159009,1,1,0.180615334539,5,6.0,32,bw,99.7810809878,2019_may_13_1647,008,256,20,5,leyre,Experiment_EEG_version,20,
Living_Things,../experiment_stimuli/bw_bc_bl/Living_Things/Animals/cheetah_25.jpg,Animals,0,cheetah,0,64,64,16,238.756846132,V_nV,1,238.762179962,240.029518041,0,2,0.160578162875,240.210652236,1,1,0.200661411916,5,7.5,32,bw,99.7810809878,2019_may_13_1647,008,256,20,5,leyre,Experiment_EEG_version,20,
Nonliving_Things,../experiment_stimuli/bw_bc_bl/Nonliving_Things/Musical_Inst/drum_12.jpg,Musical_Inst,0,drum,0,65,65,25,242.14420821,V_nV,2,242.149067983,243.436924098,1,2,0.421135912475,243.88862284,3,0,0.13050966477,5,6.0,32,bw,99.7810809878,2019_may_13_1647,008,256,20,5,leyre,Experiment_EEG_version,20,
Living_Things,../experiment_stimuli/bw_bc_bl/Living_Things/Birds/pelican_22.jpg,Birds,0,pelican,0,66,66,60,245.752049901,nV_V,2,245.756828626,247.014699638,0,1,0.681708097982,247.716966355,2,0,0.210669140797,5,6.0,32,bw,99.7810809878,2019_may_13_1647,008,256,20,5,leyre,Experiment_EEG_version,20,
Nonliving_Things,../experiment_stimuli/bw_bc_bl/Nonliving_Things/Kitchen_Uten/saucepan_16.jpg,Kitchen_Uten,0,saucepan,0,67,67,71,249.660550057,nV_V,1,249.665265042,250.913175422,1,1,0.531396239239,251.465129976,3,0,0.18060690217,5,7.5,32,bw,99.7810809878,2019_may_13_1647,008,256,20,5,leyre,Experiment_EEG_version,20,
Living_Things,../experiment_stimuli/bw_bc_bl/Living_Things/Animals/elephant_16.jpg,Animals,0,elephant,0,68,68,27,253.378626903,nV_V,2,253.384752849,254.621256095,0,1,0.290856071166,254.932649632,2,0,0.381048106705,5,6.0,32,bw,99.7810809878,2019_may_13_1647,008,256,20,5,leyre,Experiment_EEG_version,20,
Nonliving_Things,../experiment_stimuli/bw_bc_bl/Nonliving_Things/Buildings/granary_6.jpg,Buildings,0,granary,0,69,69,35,257.046603368,V_nV,2,257.051459982,258.279185321,0,1,0.832053117745,259.131803576,2,0,0.0904137803009,5,6.5,32,bw,99.7810809878,2019_may_13_1647,008,256,20,5,leyre,Experiment_EEG_version,20,
Living_Things,../experiment_stimuli/bw_bc_bl/Living_Things/Marine_creatures/narwhal_23.jpg,Marine_creatures,0,narwhal,0,70,70,55,260.955097073,nV_V,2,260.959933436,262.187685777,0,1,0.83202989964,263.040264962,1,1,0.280824643385,5,6.0,32,bw,99.7810809878,2019_may_13_1647,008,256,20,5,leyre,Experiment_EEG_version,20,
Living_Things,../experiment_stimuli/bw_bc_bl/Living_Things/Marine_creatures/crab_21.jpg,Marine_creatures,0,crab,0,71,71,21,265.054007111,nV_V,2,265.058968769,266.326692936,0,1,0.471246431465,266.818470856,2,0,0.170592342387,5,6.0,32,bw,99.7810809878,2019_may_13_1647,008,256,20,5,leyre,Experiment_EEG_version,20,
Living_Things,../experiment_stimuli/bw_bc_bl/Living_Things/Insects/scorpion_19.jpg,Insects,0,scorpion,0,72,72,73,268.721980997,nV_V,2,268.726834943,269.984633309,1,2,0.42118372384,270.42646603,1,1,0.250756559137,5,6.5,32,bw,99.7810809878,2019_may_13_1647,008,256,20,5,leyre,Experiment_EEG_version,20,
Living_Things,../experiment_stimuli/bw_bc_bl/Living_Things/Animals/lynx_5.jpg,Animals,0,lynx,0,73,73,50,272.409998743,nV_V,2,272.414828106,273.682674945,1,2,0.591508517216,274.29473689,1,1,0.130506642221,5,6.0,32,bw,99.7810809878,2019_may_13_1647,008,256,20,5,leyre,Experiment_EEG_version,20,
Nonliving_Things,../experiment_stimuli/bw_bc_bl/Nonliving_Things/Kitchen_Uten/cup_14.jpg,Kitchen_Uten,0,cup,0,74,74,22,276.158148162,V_nV,2,276.162855192,277.460880399,1,2,0.711773077026,278.193216152,3,0,0.150715071009,5,7.5,32,bw,99.7810809878,2019_may_13_1647,008,256,20,5,leyre,Experiment_EEG_version,20,
Living_Things,../experiment_stimuli/bw_bc_bl/Living_Things/Birds/partridge_16.jpg,Birds,0,partridge,0,75,75,59,280.076669617,nV_V,2,280.081465274,281.369382194,1,2,0.591540197434,281.981481947,3,0,0.12048627442,5,6.5,32,bw,99.7810809878,2019_may_13_1647,008,256,20,5,leyre,Experiment_EEG_version,20,
Living_Things,../experiment_stimuli/bw_bc_bl/Living_Things/Birds/magpie_10.jpg,Birds,0,magpie,0,76,76,51,283.834836393,nV_V,2,283.839655974,285.087462028,0,1,0.601531283814,285.709542969,2,0,0.230720071704,5,6.0,32,bw,99.7810809878,2019_may_13_1647,008,256,20,5,leyre,Experiment_EEG_version,20,
Nonliving_Things,../experiment_stimuli/bw_bc_bl/Nonliving_Things/Furniture/Chest-of-drawers_16.jpg,Furniture,0,Chest-of-drawers,0,77,77,0,287.673178237,nV_V,1,287.677914008,288.915784539,0,2,0.170595744799,289.106933813,1,1,0.0503248206223,5,6.0,32,bw,99.7810809878,2019_may_13_1647,008,256,20,5,leyre,Experiment_EEG_version,20,
Living_Things,../experiment_stimuli/bw_bc_bl/Living_Things/Insects/dragonfly_13.jpg,Insects,0,dragonfly,0,78,78,24,290.890194481,nV_V,2,290.896399899,292.152822345,1,2,0.601530347602,292.774894215,2,0,0.230744676373,5,6.0,32,bw,99.7810809878,2019_may_13_1647,008,256,20,5,leyre,Experiment_EEG_version,20,
Living_Things,../experiment_stimuli/bw_bc_bl/Living_Things/Animals/armadillo_18.jpg,Animals,0,armadillo,0,79,79,1,294.73853287,V_nV,1,294.74340009,295.991162367,1,1,0.671687906724,296.693431076,2,0,0.140589768533,5,6.0,32,bw,99.7810809878,2019_may_13_1647,008,256,20,5,leyre,Experiment_EEG_version,20,
Nonliving_Things,../experiment_stimuli/bw_bc_bl/Nonliving_Things/Vehicles/bus_15.jpg,Vehicles,0,bus,0,80,80,9,298.566854874,nV_V,1,298.571617009,299.799454011,1,1,0.280839113286,300.100826499,2,0,0.120507631451,5,6.0,32,bw,99.7810809878,2019_may_13_1647,008,256,20,5,leyre,Experiment_EEG_version,20,
Living_Things,../experiment_stimuli/bw_bc_bl/Living_Things/Insects/ladybird_17.jpg,Insects,0,ladybird,0,81,81,45,301.954223587,nV_V,2,301.958994692,303.186820803,1,2,0.110475068388,303.317835051,1,1,0.120482744649,5,6.5,32,bw,99.7810809878,2019_may_13_1647,008,256,20,5,leyre,Experiment_EEG_version,20,
Nonliving_Things,../experiment_stimuli/bw_bc_bl/Nonliving_Things/Musical_Inst/trumpet_23.jpg,Musical_Inst,0,trumpet,0,82,82,88,305.171220124,nV_V,1,305.176115821,306.413821151,0,2,0.63178191433,307.066175455,1,1,0.1906380367,5,6.0,32,bw,99.7810809878,2019_may_13_1647,008,256,20,5,leyre,Experiment_EEG_version,20,
Living_Things,../experiment_stimuli/bw_bc_bl/Living_Things/Animals/giraffe_12.jpg,Animals,0,giraffe,0,83,83,32,308.989517135,V_nV,1,308.995506696,310.262190777,1,1,0.661662692961,310.944391203,2,0,0.180611026008,5,6.0,32,bw,99.7810809878,2019_may_13_1647,008,256,20,5,leyre,Experiment_EEG_version,20,
Living_Things,../experiment_stimuli/bw_bc_bl/Living_Things/Marine_creatures/killer-whale_0.jpg,Marine_creatures,0,killer-whale,0,84,84,43,312.857922475,nV_V,2,312.862785537,314.120600053,0,1,0.300877006783,314.442021709,2,0,0.050321516348,5,7.5,32,bw,99.7810809878,2019_may_13_1647,008,256,20,5,leyre,Experiment_EEG_version,20,
Nonliving_Things,../experiment_stimuli/bw_bc_bl/Nonliving_Things/Furniture/lamp_5.jpg,Furniture,0,lamp,0,85,85,46,316.23526764,nV_V,1,316.239989226,317.49792088,1,1,0.330971354153,317.849441504,2,0,0.110466252547,5,6.5,32,bw,99.7810809878,2019_may_13_1647,008,256,20,5,leyre,Experiment_EEG_version,20,
Nonliving_Things,../experiment_stimuli/bw_bc_bl/Nonliving_Things/Furniture/couch_20.jpg,Furniture,0,couch,0,86,86,19,319.692779431,nV_V,1,319.697718774,320.945434852,0,2,0.28068996151,321.246661944,1,1,0.130512093252,5,6.0,32,bw,99.7810809878,2019_may_13_1647,008,256,20,5,leyre,Experiment_EEG_version,20,
Living_Things,../experiment_stimuli/bw_bc_bl/Living_Things/Birds/pigeon_9.jpg,Birds,0,pigeon,0,87,87,63,323.110206932,nV_V,2,323.114978146,324.372864421,1,2,0.721784001275,325.115202782,3,0,0.200649731851,5,6.0,32,bw,99.7810809878,2019_may_13_1647,008,256,20,5,leyre,Experiment_EEG_version,20,
Nonliving_Things,../experiment_stimuli/bw_bc_bl/Nonliving_Things/Vehicles/van_25.jpg,Vehicles,0,van,0,88,88,91,327.048773936,nV_V,1,327.053551578,328.301400053,1,1,1.99458453228,330.31654611,3,0,0.260791362787,5,6.5,32,bw,99.7810809878,2019_may_13_1647,008,256,20,5,leyre,Experiment_EEG_version,20,
Nonliving_Things,../experiment_stimuli/bw_bc_bl/Nonliving_Things/Musical_Inst/saxophone_16.jpg,Musical_Inst,0,saxophone,0,89,89,72,332.310219208,nV_V,1,332.315081446,333.552815446,0,2,0.230721748376,333.804081422,1,1,0.180615992227,5,6.0,32,bw,99.7810809878,2019_may_13_1647,008,256,20,5,leyre,Experiment_EEG_version,20,
Living_Things,../experiment_stimuli/bw_bc_bl/Living_Things/Birds/seagull_18.jpg,Birds,0,seagull,0,90,90,74,335.727635776,nV_V,2,335.732383682,336.9802786,1,2,0.511177885754,337.511996996,1,1,0.240752878948,5,6.0,32,bw,99.7810809878,2019_may_13_1647,008,256,20,5,leyre,Experiment_EEG_version,20,
Living_Things,../experiment_stimuli/bw_bc_bl/Living_Things/Marine_creatures/pomfret_10.jpg,Marine_creatures,0,pomfret,0,91,91,65,339.485804093,V_nV,1,339.490556311,340.748461356,0,2,0.350988330261,341.120008463,1,1,0.150545949233,5,6.0,32,bw,99.7810809878,2019_may_13_1647,008,256,20,5,leyre,Experiment_EEG_version,20,
Nonliving_Things,../experiment_stimuli/bw_bc_bl/Nonliving_Things/Buildings/castle_26.jpg,Buildings,0,castle,0,92,92,12,343.00345841,V_nV,2,343.009860123,344.29616707,0,1,0.671678583545,344.988422095,1,1,0.30072220054,5,6.0,32,bw,99.7810809878,2019_may_13_1647,008,256,20,5,leyre,Experiment_EEG_version,20,
Living_Things,../experiment_stimuli/bw_bc_bl/Living_Things/Birds/barn-owl_5.jpg,Birds,0,barn-owl,0,93,93,4,347.032211494,V_nV,1,347.036946799,348.344968303,1,1,0.731812384038,349.097368828,1,1,0.260795896582,5,6.5,32,bw,99.7810809878,2019_may_13_1647,008,256,20,5,leyre,Experiment_EEG_version,20,
Nonliving_Things,../experiment_stimuli/bw_bc_bl/Nonliving_Things/Buildings/mill_19.jpg,Buildings,0,mill,0,94,94,53,351.091073279,nV_V,1,351.095962077,352.413826519,1,1,0.601532276312,353.035896858,1,1,0.23073833104,5,6.0,32,bw,99.7810809878,2019_may_13_1647,008,256,20,5,leyre,Experiment_EEG_version,20,
Living_Things,../experiment_stimuli/bw_bc_bl/Living_Things/Birds/rooster_26.jpg,Birds,0,rooster,0,95,95,70,354.999536435,V_nV,1,355.00434281,356.34237161,1,1,0.0302897241199,356.393180205,1,1,0.250761089032,5,6.5,32,bw,99.7810809878,2019_may_13_1647,008,256,20,5,leyre,Experiment_EEG_version,20,
