category,probe_path,subcategory,fixation_duration,label,trials.thisRepN,trials.thisTrialN,trials.thisN,trials.thisIndex,image_onset_time,response_window,correctAns,probe_onset,discrim_resptime,response.corr,response.keys,response.rt,visible_resptime,visible.keys,visible.corr,visible.rt,probeFrames,jitter2,n_square,experiment_color,frameRate,date,session,image_size,premask_dur,probeFrames,participant,expName,postmask_dur,
Living_Things,../experiment_stimuli/bw_bc_bl/Living_Things/Birds/penguin_14.jpg,Birds,0,penguin,0,0,0,61,3.717823338,V_nV,1,3.74097796489,5.00051533635,0,2,11.3248425142,16.3561935629,2,0,0.751694794919,5,6.0,32,bw,99.7756017086,2019_may_13_1548,001,256,20,5,Leyre,Experiment_EEG_version,20,
Nonliving_Things,../experiment_stimuli/bw_bc_bl/Nonliving_Things/Vehicles/bus_9.jpg,Vehicles,0,bus,0,1,1,9,18.8406862293,V_nV,2,18.8456423574,20.1033364657,0,1,0.110467789927,20.2343639314,2,0,0.67168251978,5,6.0,32,bw,99.7756017086,2019_may_13_1548,001,256,20,5,Leyre,Experiment_EEG_version,20,
Nonliving_Things,../experiment_stimuli/bw_bc_bl/Nonliving_Things/Musical_Inst/drum_2.jpg,Musical_Inst,0,drum,0,2,2,25,22.6389455317,V_nV,2,22.6442110088,23.8915708705,0,1,3.97887792229,27.8910049495,3,0,0.882142618415,5,6.0,32,bw,99.7756017086,2019_may_13_1548,001,256,20,5,Leyre,Experiment_EEG_version,20,
Nonliving_Things,../experiment_stimuli/bw_bc_bl/Nonliving_Things/Vehicles/ship_13.jpg,Vehicles,0,ship,0,3,3,76,30.5060451372,nV_V,1,30.5110806064,31.7386278833,1,1,0.992380742508,32.751549734,1,1,0.431154261343,5,6.0,32,bw,99.7756017086,2019_may_13_1548,001,256,20,5,Leyre,Experiment_EEG_version,20,
Nonliving_Things,../experiment_stimuli/bw_bc_bl/Nonliving_Things/Tools/hammer_7.jpg,Tools,0,hammer,0,4,4,37,34.915626087,V_nV,2,34.9205273623,36.1782782445,0,1,0.421146498469,36.6199720802,1,1,0.421137130179,5,6.0,32,bw,99.7756017086,2019_may_13_1548,001,256,20,5,Leyre,Experiment_EEG_version,20,
Living_Things,../experiment_stimuli/bw_bc_bl/Living_Things/Birds/partridge_10.jpg,Birds,0,partridge,0,5,5,59,38.7740143929,V_nV,1,38.7790536738,40.0567021393,1,1,0.541404438205,40.6186634896,3,0,0.421133292024,5,6.0,32,bw,99.7756017086,2019_may_13_1548,001,256,20,5,Leyre,Experiment_EEG_version,20,
Nonliving_Things,../experiment_stimuli/bw_bc_bl/Nonliving_Things/Kitchen_Uten/teapot_24.jpg,Kitchen_Uten,0,teapot,0,6,6,83,42.7727083848,V_nV,2,42.7775891981,44.0353639747,0,1,0.461064411851,44.5169864642,2,0,0.381072474818,5,6.0,32,bw,99.7756017086,2019_may_13_1548,001,256,20,5,Leyre,Experiment_EEG_version,20,
Nonliving_Things,../experiment_stimuli/bw_bc_bl/Nonliving_Things/Furniture/filling-cabinet_12.jpg,Furniture,0,filling-cabinet,0,7,7,29,46.6310928601,V_nV,2,46.6358902046,47.883721274,1,2,1.07256480824,48.9768423667,2,0,0.801803870359,5,6.0,32,bw,99.7756017086,2019_may_13_1548,001,256,20,5,Leyre,Experiment_EEG_version,20,
Nonliving_Things,../experiment_stimuli/bw_bc_bl/Nonliving_Things/Kitchen_Uten/pot_17.jpg,Kitchen_Uten,0,pot,0,8,8,66,51.511700827,nV_V,1,51.5165307425,52.7543052942,1,1,0.361014747003,53.1358684723,1,1,0.250763652846,5,6.0,32,bw,99.7756017086,2019_may_13_1548,001,256,20,5,Leyre,Experiment_EEG_version,20,
Nonliving_Things,../experiment_stimuli/bw_bc_bl/Nonliving_Things/Furniture/bedside-table_24.jpg,Furniture,0,bedside-table,0,9,9,6,55.1195445067,nV_V,1,55.1250027894,56.3721799806,1,1,0.371029761445,56.7637548839,1,1,0.310898359516,5,7.0,32,bw,99.7756017086,2019_may_13_1548,001,256,20,5,Leyre,Experiment_EEG_version,20,
Living_Things,../experiment_stimuli/bw_bc_bl/Living_Things/Birds/owl_15.jpg,Birds,0,owl,0,10,10,57,58.8075609708,V_nV,1,58.8125151817,60.0902757468,1,1,0.320924035506,60.4317192142,1,1,0.501301418175,5,7.0,32,bw,99.7756017086,2019_may_13_1548,001,256,20,5,Leyre,Experiment_EEG_version,20,
Living_Things,../experiment_stimuli/bw_bc_bl/Living_Things/Birds/barn-owl_11.jpg,Birds,0,barn-owl,0,11,11,4,62.6659435626,V_nV,1,62.6715455196,63.968678116,1,1,0.47124699899,64.4604759148,3,0,0.44118626049,5,8.0,32,bw,99.7756017086,2019_may_13_1548,001,256,20,5,Leyre,Experiment_EEG_version,20,
Living_Things,../experiment_stimuli/bw_bc_bl/Living_Things/Animals/cat_26.jpg,Animals,0,cat,0,12,12,13,66.6345735679,nV_V,2,66.6394625802,67.9172617954,1,2,0.791950474028,68.7297624073,3,0,0.290855518717,5,7.5,32,bw,99.7756017086,2019_may_13_1548,001,256,20,5,Leyre,Experiment_EEG_version,20,
Living_Things,../experiment_stimuli/bw_bc_bl/Living_Things/Birds/sparrow_26.jpg,Birds,0,sparrow,0,13,13,79,70.7535247021,V_nV,1,70.7592069967,72.0061479582,1,1,0.751853224763,72.7785516781,1,1,0.401094631641,5,7.0,32,bw,99.7756017086,2019_may_13_1548,001,256,20,5,Leyre,Experiment_EEG_version,20,
Nonliving_Things,../experiment_stimuli/bw_bc_bl/Nonliving_Things/Kitchen_Uten/small-saucepan_22.jpg,Kitchen_Uten,0,small-saucepan,0,14,14,77,74.9125621534,V_nV,2,74.9174666131,76.185246878,1,2,0.69178971299,76.8975746573,2,0,0.611553847091,5,7.0,32,bw,99.7756017086,2019_may_13_1548,001,256,20,5,Leyre,Experiment_EEG_version,20,
Living_Things,../experiment_stimuli/bw_bc_bl/Living_Things/Animals/rhino_14.jpg,Animals,0,rhino,0,15,15,68,79.2419739767,V_nV,1,79.2470123593,80.5046247658,1,1,0.451210609579,80.9763846826,2,0,0.401246129302,5,6.0,32,bw,99.7756017086,2019_may_13_1548,001,256,20,5,Leyre,Experiment_EEG_version,20,
Living_Things,../experiment_stimuli/bw_bc_bl/Living_Things/Animals/horse_14.jpg,Animals,0,horse,0,16,16,40,83.1103870302,V_nV,1,83.1159227401,84.3630254815,1,1,0.952328643354,85.3358899507,1,1,0.330936753133,5,6.0,32,bw,99.7756017086,2019_may_13_1548,001,256,20,5,Leyre,Experiment_EEG_version,20,
Nonliving_Things,../experiment_stimuli/bw_bc_bl/Nonliving_Things/Kitchen_Uten/fondue_18.jpg,Kitchen_Uten,0,fondue,0,17,17,30,87.3997061345,V_nV,2,87.4046260827,88.6823988582,1,2,0.982365570148,89.6853038223,3,0,1.79412486934,5,6.0,32,bw,99.7756017086,2019_may_13_1548,001,256,20,5,Leyre,Experiment_EEG_version,20,
Nonliving_Things,../experiment_stimuli/bw_bc_bl/Nonliving_Things/Kitchen_Uten/coking-pot_18.jpg,Kitchen_Uten,0,coking-pot,0,18,18,18,93.2123452081,nV_V,1,93.2172506828,94.4649769943,1,1,0.872136517253,95.3576874724,3,0,0.350986334262,5,6.5,32,bw,99.7756017086,2019_may_13_1548,001,256,20,5,Leyre,Experiment_EEG_version,20,
Nonliving_Things,../experiment_stimuli/bw_bc_bl/Nonliving_Things/Furniture/bookcase_11.jpg,Furniture,0,bookcase,0,19,19,8,97.4415360872,V_nV,2,97.4463875663,98.6741213932,0,1,1.81416924001,100.508843463,1,1,0.371030114882,5,6.5,32,bw,99.7756017086,2019_may_13_1548,001,256,20,5,Leyre,Experiment_EEG_version,20,
Living_Things,../experiment_stimuli/bw_bc_bl/Living_Things/Birds/goose_25.jpg,Birds,0,goose,0,20,20,34,102.612778008,nV_V,2,102.617779256,103.865409742,0,1,0.190640247194,104.076624544,1,1,1.99456055125,5,6.0,32,bw,99.7756017086,2019_may_13_1548,001,256,20,5,Leyre,Experiment_EEG_version,20,
Nonliving_Things,../experiment_stimuli/bw_bc_bl/Nonliving_Things/Furniture/lamp_15.jpg,Furniture,0,lamp,0,21,21,46,107.804070229,V_nV,2,107.810522662,109.086750487,1,2,0.561469658103,109.668775467,1,1,0.932251190068,5,6.0,32,bw,99.7756017086,2019_may_13_1548,001,256,20,5,Leyre,Experiment_EEG_version,20,
Nonliving_Things,../experiment_stimuli/bw_bc_bl/Nonliving_Things/Vehicles/car_11.jpg,Vehicles,0,car,0,22,22,11,112.333911543,V_nV,2,112.338844652,113.636642566,1,2,0.992386370082,114.649580529,3,0,0.320921152248,5,6.0,32,bw,99.7756017086,2019_may_13_1548,001,256,20,5,Leyre,Experiment_EEG_version,20,
Living_Things,../experiment_stimuli/bw_bc_bl/Living_Things/Birds/ostrich_6.jpg,Birds,0,ostrich,0,23,23,56,116.703408844,V_nV,1,116.708269997,117.9760812,1,1,0.361011844827,118.357664589,2,0,0.300877822388,5,6.0,32,bw,99.7756017086,2019_may_13_1548,001,256,20,5,Leyre,Experiment_EEG_version,20,
Nonliving_Things,../experiment_stimuli/bw_bc_bl/Nonliving_Things/Musical_Inst/violin_1.jpg,Musical_Inst,0,violin,0,24,24,92,120.391426586,nV_V,1,120.396443541,121.65407338,1,1,0.230722146807,121.90539722,1,1,0.320944696781,5,6.0,32,bw,99.7756017086,2019_may_13_1548,001,256,20,5,Leyre,Experiment_EEG_version,20,
Living_Things,../experiment_stimuli/bw_bc_bl/Living_Things/Marine_creatures/sperm-whale_4.jpg,Marine_creatures,0,sperm-whale,0,25,25,80,123.959182303,V_nV,1,123.964182739,125.231853415,1,1,0.441185380798,125.693588794,2,0,0.310889705492,5,7.5,32,bw,99.7756017086,2019_may_13_1548,001,256,20,5,Leyre,Experiment_EEG_version,20,
Nonliving_Things,../experiment_stimuli/bw_bc_bl/Nonliving_Things/Furniture/table_13.jpg,Furniture,0,table,0,26,26,81,127.737396328,V_nV,2,127.743983711,129.000041463,1,2,0.491292012623,129.521898065,2,0,0.310897103918,5,6.0,32,bw,99.7756017086,2019_may_13_1548,001,256,20,5,Leyre,Experiment_EEG_version,20,
Living_Things,../experiment_stimuli/bw_bc_bl/Living_Things/Animals/cheetah_23.jpg,Animals,0,cheetah,0,27,27,16,131.56571502,nV_V,2,131.570630055,132.81834196,1,2,0.361035118753,133.199925149,1,1,0.320918610552,5,6.0,32,bw,99.7756017086,2019_may_13_1548,001,256,20,5,Leyre,Experiment_EEG_version,20,
Nonliving_Things,../experiment_stimuli/bw_bc_bl/Nonliving_Things/Furniture/Chest-of-drawers_1.jpg,Furniture,0,Chest-of-drawers,0,28,28,0,135.253742916,V_nV,2,135.258531336,136.526402348,1,2,0.872128058691,137.419089762,2,0,0.340983345755,5,6.0,32,bw,99.7756017086,2019_may_13_1548,001,256,20,5,Leyre,Experiment_EEG_version,20,
Nonliving_Things,../experiment_stimuli/bw_bc_bl/Nonliving_Things/Furniture/rocking-chair_7.jpg,Furniture,0,rocking-chair,0,29,29,69,139.492951024,nV_V,1,139.497982598,140.755594411,1,1,0.621582868858,141.397723286,3,0,0.361004758626,5,7.0,32,bw,99.7756017086,2019_may_13_1548,001,256,20,5,Leyre,Experiment_EEG_version,20,
Nonliving_Things,../experiment_stimuli/bw_bc_bl/Nonliving_Things/Furniture/bed_1.jpg,Furniture,0,bed,0,30,30,5,143.491637328,V_nV,2,143.496527795,144.724222314,1,2,0.351010390499,145.10580229,1,1,0.290855082625,5,8.0,32,bw,99.7756017086,2019_may_13_1548,001,256,20,5,Leyre,Experiment_EEG_version,20,
Nonliving_Things,../experiment_stimuli/bw_bc_bl/Nonliving_Things/Musical_Inst/tuba_24.jpg,Musical_Inst,0,tuba,0,31,31,89,147.129547066,V_nV,2,147.136290495,148.382175239,1,2,0.361013187037,148.76372835,1,1,0.260818640585,5,6.5,32,bw,99.7756017086,2019_may_13_1548,001,256,20,5,Leyre,Experiment_EEG_version,20,
Nonliving_Things,../experiment_stimuli/bw_bc_bl/Nonliving_Things/Furniture/sofa_6.jpg,Furniture,0,sofa,0,32,32,78,150.757438804,V_nV,2,150.762242826,152.030107503,0,1,0.110477951646,152.161132555,2,0,0.310895821778,5,7.0,32,bw,99.7756017086,2019_may_13_1548,001,256,20,5,Leyre,Experiment_EEG_version,20,
Living_Things,../experiment_stimuli/bw_bc_bl/Living_Things/Marine_creatures/narwhal_6.jpg,Marine_creatures,0,narwhal,0,33,33,55,154.204931691,V_nV,1,154.209947682,155.467573198,1,1,0.130510078277,155.618643027,1,1,1.84407834942,5,6.0,32,bw,99.7756017086,2019_may_13_1548,001,256,20,5,Leyre,Experiment_EEG_version,20,
Living_Things,../experiment_stimuli/bw_bc_bl/Living_Things/Animals/lioness_23.jpg,Animals,0,lioness,0,34,34,48,159.195775816,nV_V,2,159.200824221,160.468447348,0,1,0.972355111968,161.461348283,2,0,0.651643968245,5,6.0,32,bw,99.7756017086,2019_may_13_1548,001,256,20,5,Leyre,Experiment_EEG_version,20,
Nonliving_Things,../experiment_stimuli/bw_bc_bl/Nonliving_Things/Furniture/wardrobe_22.jpg,Furniture,0,wardrobe,0,35,35,93,163.845885877,V_nV,2,163.850767246,165.108547598,1,2,0.801975540991,165.931044665,1,1,0.962316383608,5,6.0,32,bw,99.7756017086,2019_may_13_1548,001,256,20,5,Leyre,Experiment_EEG_version,20,
Living_Things,../experiment_stimuli/bw_bc_bl/Living_Things/Birds/pigeon_23.jpg,Birds,0,pigeon,0,36,36,63,168.62628797,nV_V,2,168.631238253,169.91900381,1,2,0.852078503696,170.791657207,3,0,0.320948042616,5,6.0,32,bw,99.7756017086,2019_may_13_1548,001,256,20,5,Leyre,Experiment_EEG_version,20,
Living_Things,../experiment_stimuli/bw_bc_bl/Living_Things/Marine_creatures/dolphin_0.jpg,Marine_creatures,0,dolphin,0,37,37,23,172.845451929,V_nV,1,172.852352928,174.108098057,1,1,0.63160765724,174.76026236,2,0,0.32091718592,5,6.5,32,bw,99.7756017086,2019_may_13_1548,001,256,20,5,Leyre,Experiment_EEG_version,20,
Nonliving_Things,../experiment_stimuli/bw_bc_bl/Nonliving_Things/Tools/axe_4.jpg,Tools,0,axe,0,38,38,3,176.814096795,V_nV,2,176.819038476,178.066699841,0,1,1.67389034707,179.771177923,1,1,0.330943632696,5,6.5,32,bw,99.7756017086,2019_may_13_1548,001,256,20,5,Leyre,Experiment_EEG_version,20,
Living_Things,../experiment_stimuli/bw_bc_bl/Living_Things/Birds/seagull_0.jpg,Birds,0,seagull,0,39,39,74,181.835007948,V_nV,1,181.842076317,183.097636711,1,1,0.561447342625,183.679650218,2,0,0.481270066288,5,7.0,32,bw,99.7756017086,2019_may_13_1548,001,256,20,5,Leyre,Experiment_EEG_version,20,
Nonliving_Things,../experiment_stimuli/bw_bc_bl/Nonliving_Things/Buildings/church_10.jpg,Buildings,0,church,0,40,40,17,185.893821685,nV_V,1,185.898754287,187.146437655,1,1,0.651643426856,187.818635539,1,1,0.451195478032,5,7.5,32,bw,99.7756017086,2019_may_13_1548,001,256,20,5,Leyre,Experiment_EEG_version,20,
Living_Things,../experiment_stimuli/bw_bc_bl/Living_Things/Animals/elephant_0.jpg,Animals,0,elephant,0,41,41,27,190.002756842,V_nV,1,190.008572443,191.265395819,1,1,0.491295685701,191.777239839,2,0,0.260791355278,5,6.5,32,bw,99.7756017086,2019_may_13_1548,001,256,20,5,Leyre,Experiment_EEG_version,20,
Living_Things,../experiment_stimuli/bw_bc_bl/Living_Things/Marine_creatures/manatee_4.jpg,Marine_creatures,0,manatee,0,42,42,52,193.770941143,V_nV,1,193.777007676,195.023559955,1,1,0.481296941696,195.525424899,2,0,0.320942185528,5,6.0,32,bw,99.7756017086,2019_may_13_1548,001,256,20,5,Leyre,Experiment_EEG_version,20,
Nonliving_Things,../experiment_stimuli/bw_bc_bl/Nonliving_Things/Musical_Inst/piano__23.jpg,Musical_Inst,0,piano,0,43,43,62,197.579232219,V_nV,2,197.58407554,198.821823228,1,2,0.37103801308,199.21340842,1,1,0.350990732666,5,6.0,32,bw,99.7756017086,2019_may_13_1548,001,256,20,5,Leyre,Experiment_EEG_version,20,
Nonliving_Things,../experiment_stimuli/bw_bc_bl/Nonliving_Things/Musical_Inst/trumpet_22.jpg,Musical_Inst,0,trumpet,0,44,44,88,201.297304918,V_nV,2,201.304411876,202.569966657,1,2,0.26081549027,202.851332493,1,1,0.340966376069,5,6.5,32,bw,99.7756017086,2019_may_13_1548,001,256,20,5,Leyre,Experiment_EEG_version,20,
Nonliving_Things,../experiment_stimuli/bw_bc_bl/Nonliving_Things/Buildings/palace_9.jpg,Buildings,0,palace,0,45,45,58,204.925184397,nV_V,1,204.930167092,206.217900786,1,1,0.250770491315,206.489206314,1,1,0.300720824627,5,6.0,32,bw,99.7756017086,2019_may_13_1548,001,256,20,5,Leyre,Experiment_EEG_version,20,
Nonliving_Things,../experiment_stimuli/bw_bc_bl/Nonliving_Things/Buildings/castle_24.jpg,Buildings,0,castle,0,46,46,12,208.523004905,nV_V,1,208.527907214,209.845794427,1,1,0.491292328457,210.357671351,2,0,0.571486762783,5,6.0,32,bw,99.7756017086,2019_may_13_1548,001,256,20,5,Leyre,Experiment_EEG_version,20,
Nonliving_Things,../experiment_stimuli/bw_bc_bl/Nonliving_Things/Vehicles/tractor_0.jpg,Vehicles,0,tractor,0,47,47,86,212.662003891,V_nV,2,212.666929095,213.97475982,1,2,0.621580071514,214.616900898,3,0,0.320923757274,5,6.5,32,bw,99.7756017086,2019_may_13_1548,001,256,20,5,Leyre,Experiment_EEG_version,20,
Living_Things,../experiment_stimuli/bw_bc_bl/Living_Things/Animals/zebra_8.jpg,Animals,0,zebra,0,48,48,95,216.670720976,V_nV,1,216.676816141,217.963437023,1,1,0.431167133327,218.415131926,2,0,0.320920591883,5,6.5,32,bw,99.7756017086,2019_may_13_1548,001,256,20,5,Leyre,Experiment_EEG_version,20,
Nonliving_Things,../experiment_stimuli/bw_bc_bl/Nonliving_Things/Buildings/cathedral_8.jpg,Buildings,0,cathedral,0,49,49,14,220.468982441,V_nV,2,220.473905453,221.751664289,1,2,0.762097063067,222.534321136,3,0,0.812010021356,5,6.5,32,bw,99.7756017086,2019_may_13_1548,001,256,20,5,Leyre,Experiment_EEG_version,20,
Living_Things,../experiment_stimuli/bw_bc_bl/Living_Things/Animals/hippopotamus_2.jpg,Animals,0,hippopotamus,0,50,50,39,225.078995467,V_nV,1,225.083803015,226.331619994,0,2,0.310900908313,226.663076566,3,0,0.340999661305,5,7.5,32,bw,99.7756017086,2019_may_13_1548,001,256,20,5,Leyre,Experiment_EEG_version,20,
Nonliving_Things,../experiment_stimuli/bw_bc_bl/Nonliving_Things/Vehicles/boat_14.jpg,Vehicles,0,boat,0,51,51,7,228.736948903,V_nV,2,228.741727605,229.969541701,0,1,0.411121236335,230.401242741,1,1,0.340810498979,5,6.5,32,bw,99.7756017086,2019_may_13_1548,001,256,20,5,Leyre,Experiment_EEG_version,20,
Nonliving_Things,../experiment_stimuli/bw_bc_bl/Nonliving_Things/Kitchen_Uten/frying-pan_14.jpg,Kitchen_Uten,0,frying-pan,0,52,52,31,232.475073615,nV_V,1,232.480053676,233.737724769,1,1,0.561451323621,234.319725032,3,0,0.511329316068,5,6.0,32,bw,99.7756017086,2019_may_13_1548,001,256,20,5,Leyre,Experiment_EEG_version,20,
Living_Things,../experiment_stimuli/bw_bc_bl/Living_Things/Marine_creatures/crab_8.jpg,Marine_creatures,0,crab,0,53,53,21,236.563966079,nV_V,2,236.568954195,237.796548077,0,1,0.280841192347,238.097945253,2,0,0.391095053055,5,6.0,32,bw,99.7756017086,2019_may_13_1548,001,256,20,5,Leyre,Experiment_EEG_version,20,
Nonliving_Things,../experiment_stimuli/bw_bc_bl/Nonliving_Things/Kitchen_Uten/saucepan_22.jpg,Kitchen_Uten,0,saucepan,0,54,54,71,240.22191347,V_nV,2,240.227751875,241.454509738,0,1,0.551448339073,242.0264897,1,1,0.290883683716,5,8.0,32,bw,99.7756017086,2019_may_13_1548,001,256,20,5,Leyre,Experiment_EEG_version,20,
Living_Things,../experiment_stimuli/bw_bc_bl/Living_Things/Birds/toucan_15.jpg,Birds,0,toucan,0,55,55,85,244.050237872,V_nV,1,244.05509114,245.302862808,1,1,0.57147234946,245.894891694,2,0,0.391071387858,5,6.0,32,bw,99.7756017086,2019_may_13_1548,001,256,20,5,Leyre,Experiment_EEG_version,20,
Living_Things,../experiment_stimuli/bw_bc_bl/Living_Things/Birds/raven_0.jpg,Birds,0,raven,0,56,56,67,248.018872941,nV_V,2,248.025014432,249.261467352,0,1,0.210682794685,249.492705998,2,0,0.340965902724,5,6.5,32,bw,99.7756017086,2019_may_13_1548,001,256,20,5,Leyre,Experiment_EEG_version,20,
Nonliving_Things,../experiment_stimuli/bw_bc_bl/Nonliving_Things/Furniture/chair_12.jpg,Furniture,0,chair,0,57,57,15,251.566577463,V_nV,2,251.573868497,252.799157032,0,1,0.120512349298,252.940230185,2,0,0.391063350311,5,7.5,32,bw,99.7756017086,2019_may_13_1548,001,256,20,5,Leyre,Experiment_EEG_version,20,
Nonliving_Things,../experiment_stimuli/bw_bc_bl/Nonliving_Things/Buildings/factory_24.jpg,Buildings,0,factory,0,58,58,28,255.064180041,V_nV,2,255.069085193,256.296767671,0,1,0.170591992908,256.487917362,2,0,0.611551564944,5,6.0,32,bw,99.7756017086,2019_may_13_1548,001,256,20,5,Leyre,Experiment_EEG_version,20,
Nonliving_Things,../experiment_stimuli/bw_bc_bl/Nonliving_Things/Furniture/lectern_8.jpg,Furniture,0,lectern,0,59,59,47,258.832369169,V_nV,2,258.837286253,260.064953306,1,2,0.310912787856,260.396416465,1,1,0.340963688272,5,6.5,32,bw,99.7756017086,2019_may_13_1548,001,256,20,5,Leyre,Experiment_EEG_version,20,
Nonliving_Things,../experiment_stimuli/bw_bc_bl/Nonliving_Things/Furniture/couch_22.jpg,Furniture,0,couch,0,60,60,19,262.470277212,nV_V,1,262.475144495,263.722901742,0,2,0.561474060174,264.31496036,3,0,0.451195699687,5,6.5,32,bw,99.7756017086,2019_may_13_1548,001,256,20,5,Leyre,Experiment_EEG_version,20,
Living_Things,../experiment_stimuli/bw_bc_bl/Living_Things/Birds/hen_23.jpg,Birds,0,hen,0,61,61,38,266.499057058,V_nV,1,266.503985127,267.731625459,1,1,0.140535261948,267.892722629,1,1,0.862096623401,5,6.0,32,bw,99.7756017086,2019_may_13_1548,001,256,20,5,Leyre,Experiment_EEG_version,20,
Living_Things,../experiment_stimuli/bw_bc_bl/Living_Things/Animals/turtle_20.jpg,Animals,0,turtle,0,62,62,90,270.487714138,V_nV,1,270.492676995,271.730312692,0,2,0.581494694634,272.332354058,1,1,0.401092808519,5,7.0,32,bw,99.7756017086,2019_may_13_1548,001,256,20,5,Leyre,Experiment_EEG_version,20,
Living_Things,../experiment_stimuli/bw_bc_bl/Living_Things/Birds/rooster_14.jpg,Birds,0,rooster,0,63,63,70,274.466355872,nV_V,2,274.472515629,275.729003169,1,2,0.441186425916,276.190734774,1,1,0.310900220182,5,6.0,32,bw,99.7756017086,2019_may_13_1548,001,256,20,5,Leyre,Experiment_EEG_version,20,
Nonliving_Things,../experiment_stimuli/bw_bc_bl/Nonliving_Things/Vehicles/van_4.jpg,Vehicles,0,van,0,64,64,91,278.234550793,nV_V,1,278.239404644,279.517240163,1,1,0.621575135679,280.159365997,3,0,0.421125720721,5,6.0,32,bw,99.7756017086,2019_may_13_1548,001,256,20,5,Leyre,Experiment_EEG_version,20,
Living_Things,../experiment_stimuli/bw_bc_bl/Living_Things/Marine_creatures/pomfret_1.jpg,Marine_creatures,0,pomfret,0,65,65,65,282.313420373,V_nV,1,282.318260244,283.566040344,1,1,0.942275151785,284.538907674,2,0,0.48126787052,5,6.0,32,bw,99.7756017086,2019_may_13_1548,001,256,20,5,Leyre,Experiment_EEG_version,20,
Nonliving_Things,../experiment_stimuli/bw_bc_bl/Nonliving_Things/Vehicles/train_17.jpg,Vehicles,0,train,0,66,66,87,286.753070817,nV_V,1,286.758042362,287.995671514,0,2,0.361036720569,288.377272436,1,1,0.34096929332,5,8.0,32,bw,99.7756017086,2019_may_13_1548,001,256,20,5,Leyre,Experiment_EEG_version,20,
Nonliving_Things,../experiment_stimuli/bw_bc_bl/Nonliving_Things/Vehicles/plane_24.jpg,Vehicles,0,plane,0,67,67,64,290.451133066,V_nV,2,290.456008864,291.723775246,0,1,0.621696581133,292.376037908,1,1,0.441178395937,5,7.0,32,bw,99.7756017086,2019_may_13_1548,001,256,20,5,Leyre,Experiment_EEG_version,20,
Living_Things,../experiment_stimuli/bw_bc_bl/Living_Things/Animals/lynx_0.jpg,Animals,0,lynx,0,68,68,50,294.550014875,nV_V,2,294.556178869,295.852762409,0,1,0.471375888272,296.344686774,1,1,0.391053080151,5,6.0,32,bw,99.7756017086,2019_may_13_1548,001,256,20,5,Leyre,Experiment_EEG_version,20,
Living_Things,../experiment_stimuli/bw_bc_bl/Living_Things/Insects/butterfly_26.jpg,Insects,0,butterfly,0,69,69,10,298.468538831,nV_V,2,298.475997829,299.811352927,1,2,0.862096281489,300.694006545,3,0,0.431160757493,5,6.0,32,bw,99.7756017086,2019_may_13_1548,001,256,20,5,Leyre,Experiment_EEG_version,20,
Nonliving_Things,../experiment_stimuli/bw_bc_bl/Nonliving_Things/Vehicles/motorbike_24.jpg,Vehicles,0,motorbike,0,70,70,54,302.858083455,V_nV,2,302.86291993,304.17083203,1,2,1.19282169145,305.384215036,3,0,0.371046242479,5,6.5,32,bw,99.7756017086,2019_may_13_1548,001,256,20,5,Leyre,Experiment_EEG_version,20,
Living_Things,../experiment_stimuli/bw_bc_bl/Living_Things/Marine_creatures/whale_12.jpg,Marine_creatures,0,whale,0,71,71,94,307.488148348,nV_V,2,307.49289913,308.770831516,0,1,0.892168730497,309.683554328,1,1,0.551431376953,5,7.5,32,bw,99.7756017086,2019_may_13_1548,001,256,20,5,Leyre,Experiment_EEG_version,20,
Living_Things,../experiment_stimuli/bw_bc_bl/Living_Things/Animals/tapir_3.jpg,Animals,0,tapir,0,72,72,82,311.967890274,nV_V,2,311.97276911,313.260598302,0,1,0.501318075985,313.782453039,1,1,0.340965646727,5,6.0,32,bw,99.7756017086,2019_may_13_1548,001,256,20,5,Leyre,Experiment_EEG_version,20,
Nonliving_Things,../experiment_stimuli/bw_bc_bl/Nonliving_Things/Musical_Inst/guitar_25.jpg,Musical_Inst,0,guitar,0,73,73,36,315.856356457,V_nV,2,315.861303056,317.179110401,1,2,1.04251600546,318.242181597,3,0,0.571468996117,5,6.5,32,bw,99.7756017086,2019_may_13_1548,001,256,20,5,Leyre,Experiment_EEG_version,20,
Living_Things,../experiment_stimuli/bw_bc_bl/Living_Things/Marine_creatures/killer-whale_25.jpg,Marine_creatures,0,killer-whale,0,74,74,43,320.546524276,V_nV,1,320.551280994,321.849275318,1,1,0.681711304525,322.55151034,3,0,0.391068346682,5,7.0,32,bw,99.7756017086,2019_may_13_1548,001,256,20,5,Leyre,Experiment_EEG_version,20,
Living_Things,../experiment_stimuli/bw_bc_bl/Living_Things/Insects/scorpion_8.jpg,Insects,0,scorpion,0,75,75,73,324.675502346,nV_V,2,324.680455444,325.948171901,1,2,0.361046028382,326.329771989,1,1,0.421156055061,5,6.0,32,bw,99.7756017086,2019_may_13_1548,001,256,20,5,Leyre,Experiment_EEG_version,20,
Living_Things,../experiment_stimuli/bw_bc_bl/Living_Things/Animals/cow_24.jpg,Animals,0,cow,0,76,76,20,328.483793542,nV_V,2,328.490062091,329.776496081,0,1,0.371032377996,330.168078782,2,0,0.381047144358,5,6.0,32,bw,99.7756017086,2019_may_13_1548,001,256,20,5,Leyre,Experiment_EEG_version,20,
Living_Things,../experiment_stimuli/bw_bc_bl/Living_Things/Insects/ladybird_23.jpg,Insects,0,ladybird,0,77,77,45,332.282041258,V_nV,1,332.288326213,333.554709836,1,1,0.521386904933,334.0966603,1,1,1.70392233768,5,6.5,32,bw,99.7756017086,2019_may_13_1548,001,256,20,5,Leyre,Experiment_EEG_version,20,
Nonliving_Things,../experiment_stimuli/bw_bc_bl/Nonliving_Things/Kitchen_Uten/cup_7.jpg,Kitchen_Uten,0,cup,0,78,78,22,337.533455915,nV_V,1,337.538152663,338.816148232,1,1,0.541407520475,339.378097858,3,0,0.51134100015,5,7.5,32,bw,99.7756017086,2019_may_13_1548,001,256,20,5,Leyre,Experiment_EEG_version,20,
Nonliving_Things,../experiment_stimuli/bw_bc_bl/Nonliving_Things/Buildings/house_13.jpg,Buildings,0,house,0,79,79,41,341.622349186,nV_V,1,341.62709996,342.87496963,0,2,0.621579474013,343.517117137,2,0,0.310903615027,5,6.0,32,bw,99.7756017086,2019_may_13_1548,001,256,20,5,Leyre,Experiment_EEG_version,20,
Living_Things,../experiment_stimuli/bw_bc_bl/Living_Things/Animals/tiger_6.jpg,Animals,0,tiger,0,80,80,84,345.560917062,nV_V,2,345.565747102,346.803513774,1,2,0.371031945455,347.195087354,1,1,0.340814656811,5,6.0,32,bw,99.7756017086,2019_may_13_1548,001,256,20,5,Leyre,Experiment_EEG_version,20,
Nonliving_Things,../experiment_stimuli/bw_bc_bl/Nonliving_Things/Musical_Inst/saxophone_17.jpg,Musical_Inst,0,saxophone,0,81,81,72,349.268963574,V_nV,2,349.275374215,350.531614927,1,2,0.391094087099,350.94326723,1,1,0.481265728013,5,6.0,32,bw,99.7756017086,2019_may_13_1548,001,256,20,5,Leyre,Experiment_EEG_version,20,
Living_Things,../experiment_stimuli/bw_bc_bl/Living_Things/Birds/pelican_6.jpg,Birds,0,pelican,0,82,82,60,353.157416772,V_nV,1,353.162322784,354.43010241,0,2,0.401099127834,354.851736353,1,1,0.320917990408,5,6.5,32,bw,99.7756017086,2019_may_13_1548,001,256,20,5,Leyre,Experiment_EEG_version,20,
Living_Things,../experiment_stimuli/bw_bc_bl/Living_Things/Birds/goldfinch_19.jpg,Birds,0,goldfinch,0,83,83,33,356.905576341,V_nV,1,356.911932107,358.198287895,1,1,0.671680685191,358.890502245,1,1,2.53558294976,5,6.0,32,bw,99.7756017086,2019_may_13_1548,001,256,20,5,Leyre,Experiment_EEG_version,20,
Nonliving_Things,../experiment_stimuli/bw_bc_bl/Nonliving_Things/Furniture/armchair_26.jpg,Furniture,0,armchair,0,84,84,2,363.159162487,nV_V,1,363.163917464,364.4618978,1,1,0.431165640708,364.913636571,3,0,0.46123053733,5,6.0,32,bw,99.7756017086,2019_may_13_1548,001,256,20,5,Leyre,Experiment_EEG_version,20,
Nonliving_Things,../experiment_stimuli/bw_bc_bl/Nonliving_Things/Buildings/mill_14.jpg,Buildings,0,mill,0,85,85,53,367.107750061,V_nV,2,367.112601364,368.380418606,0,1,0.451045145805,368.852023039,2,0,0.330963966844,5,6.0,32,bw,99.7756017086,2019_may_13_1548,001,256,20,5,Leyre,Experiment_EEG_version,20,
Living_Things,../experiment_stimuli/bw_bc_bl/Living_Things/Marine_creatures/shark_9.jpg,Marine_creatures,0,shark,0,86,86,75,370.916030307,V_nV,1,370.920835937,372.178676701,1,1,0.571472654177,372.770693313,3,0,0.381058433442,5,6.5,32,bw,99.7756017086,2019_may_13_1548,001,256,20,5,Leyre,Experiment_EEG_version,20,
Living_Things,../experiment_stimuli/bw_bc_bl/Living_Things/Birds/hummingbird_9.jpg,Birds,0,hummingbird,0,87,87,42,374.88467947,V_nV,1,374.889561276,376.117237795,1,1,0.691719176248,376.829493527,2,0,1.01244594739,5,6.0,32,bw,99.7756017086,2019_may_13_1548,001,256,20,5,Leyre,Experiment_EEG_version,20,
Living_Things,../experiment_stimuli/bw_bc_bl/Living_Things/Marine_creatures/lobster_18.jpg,Marine_creatures,0,lobster,0,88,88,49,379.574849953,nV_V,2,379.579761259,380.807432609,0,1,0.411142029101,381.239137502,1,1,0.320924114203,5,6.5,32,bw,99.7756017086,2019_may_13_1548,001,256,20,5,Leyre,Experiment_EEG_version,20,
Living_Things,../experiment_stimuli/bw_bc_bl/Living_Things/Birds/duck_5.jpg,Birds,0,duck,0,89,89,26,383.292933479,V_nV,1,383.297750309,384.545557619,0,2,0.000251759367529,384.56635693,1,1,1.34314189199,5,7.5,32,bw,99.7756017086,2019_may_13_1548,001,256,20,5,Leyre,Experiment_EEG_version,20,
Living_Things,../experiment_stimuli/bw_bc_bl/Living_Things/Insects/dragonfly_16.jpg,Insects,0,dragonfly,0,90,90,24,387.642383764,nV_V,2,387.647265502,388.925078104,1,2,0.962320030143,389.907932585,3,0,0.481262250454,5,6.0,32,bw,99.7756017086,2019_may_13_1548,001,256,20,5,Leyre,Experiment_EEG_version,20,
Nonliving_Things,../experiment_stimuli/bw_bc_bl/Nonliving_Things/Buildings/granary_23.jpg,Buildings,0,granary,0,91,91,35,392.122129622,nV_V,1,392.126995793,393.374751363,1,1,0.431165509275,393.826452014,1,1,0.39107579767,5,6.5,32,bw,99.7756017086,2019_may_13_1548,001,256,20,5,Leyre,Experiment_EEG_version,20,
Living_Things,../experiment_stimuli/bw_bc_bl/Living_Things/Animals/giraffe_23.jpg,Animals,0,giraffe,0,92,92,32,395.950446009,V_nV,1,395.957030553,397.233139597,1,1,0.441181572387,397.694860624,1,1,0.350983544835,5,6.0,32,bw,99.7756017086,2019_may_13_1548,001,256,20,5,Leyre,Experiment_EEG_version,20,
Living_Things,../experiment_stimuli/bw_bc_bl/Living_Things/Birds/magpie_4.jpg,Birds,0,magpie,0,93,93,51,399.778770982,nV_V,2,399.783588187,401.091524185,0,1,0.58150552155,401.693610954,1,1,0.371028464346,5,6.0,32,bw,99.7756017086,2019_may_13_1548,001,256,20,5,Leyre,Experiment_EEG_version,20,
Living_Things,../experiment_stimuli/bw_bc_bl/Living_Things/Birds/kiwi_12.jpg,Birds,0,kiwi,0,94,94,44,403.797502495,nV_V,2,403.802372914,405.130311848,1,2,0.791952593951,405.942844019,3,0,0.270815125084,5,6.5,32,bw,99.7756017086,2019_may_13_1548,001,256,20,5,Leyre,Experiment_EEG_version,20,
Living_Things,../experiment_stimuli/bw_bc_bl/Living_Things/Animals/armadillo_16.jpg,Animals,0,armadillo,0,95,95,1,407.946522463,V_nV,1,407.95134904,409.259283184,1,1,0.381058091589,409.660919218,3,0,0.340962616727,5,6.5,32,bw,99.7756017086,2019_may_13_1548,001,256,20,5,Leyre,Experiment_EEG_version,20,
