category,probe_path,subcategory,fixation_duration,label,trials.thisRepN,trials.thisTrialN,trials.thisN,trials.thisIndex,image_onset_time,response_window,correctAns,probe_onset,discrim_resptime,response.corr,response.keys,response.rt,visible_resptime,visible.keys,visible.corr,visible.rt,probeFrames,jitter2,n_square,experiment_color,frameRate,date,session,image_size,premask_dur,probeFrames,participant,expName,postmask_dur,
Nonliving_Things,../experiment_stimuli/bw_bc_bl/Nonliving_Things/Furniture/chair_17.jpg,Furniture,0,chair,0,0,0,15,3.71842680662,nV_V,1,3.74107194098,5.00111627119,1,1,0.541406858829,5.5733576286,1,1,0.401085097925,5,6.0,32,bw,99.7814029182,2019_may_13_1606,003,256,20,5,leyre,Experiment_EEG_version,20,
Nonliving_Things,../experiment_stimuli/bw_bc_bl/Nonliving_Things/Vehicles/tractor_23.jpg,Vehicles,0,tractor,0,1,1,86,7.70710415643,nV_V,1,7.7119784776,8.98979244049,1,1,0.561587479548,9.57194204704,3,0,0.270658353285,5,7.0,32,bw,99.7814029182,2019_may_13_1606,003,256,20,5,leyre,Experiment_EEG_version,20,
Living_Things,../experiment_stimuli/bw_bc_bl/Living_Things/Animals/horse_7.jpg,Animals,0,horse,0,2,2,40,11.5754947552,nV_V,2,11.5803621782,12.8381457888,1,2,0.842071056657,13.7007584499,3,0,0.210696869763,5,7.0,32,bw,99.7814029182,2019_may_13_1606,003,256,20,5,leyre,Experiment_EEG_version,20,
Living_Things,../experiment_stimuli/bw_bc_bl/Living_Things/Animals/cat_25.jpg,Animals,0,cat,0,3,3,13,15.644340457,nV_V,2,15.6491378957,16.8869457813,1,2,0.340971342346,17.2484619157,1,1,0.280849985313,5,8.0,32,bw,99.7814029182,2019_may_13_1606,003,256,20,5,leyre,Experiment_EEG_version,20,
Living_Things,../experiment_stimuli/bw_bc_bl/Living_Things/Birds/ostrich_18.jpg,Birds,0,ostrich,0,4,4,56,19.2622061435,V_nV,1,19.2671041675,20.53487153,1,1,0.320930444985,20.8763576469,2,0,0.290856312145,5,6.0,32,bw,99.7814029182,2019_may_13_1606,003,256,20,5,leyre,Experiment_EEG_version,20,
Living_Things,../experiment_stimuli/bw_bc_bl/Living_Things/Animals/tapir_15.jpg,Animals,0,tapir,0,5,5,82,22.900114983,V_nV,1,22.9049433012,24.1627573211,1,1,0.471269134316,24.6545781235,3,0,0.310909182823,5,6.0,32,bw,99.7814029182,2019_may_13_1606,003,256,20,5,leyre,Experiment_EEG_version,20,
Nonliving_Things,../experiment_stimuli/bw_bc_bl/Nonliving_Things/Buildings/castle_18.jpg,Buildings,0,castle,0,6,6,12,26.6983676314,nV_V,1,26.7032495539,27.9409716062,0,2,0.571425282455,28.5329867968,1,1,0.23056967929,5,6.0,32,bw,99.7814029182,2019_may_13_1606,003,256,20,5,leyre,Experiment_EEG_version,20,
Nonliving_Things,../experiment_stimuli/bw_bc_bl/Nonliving_Things/Vehicles/train_11.jpg,Vehicles,0,train,0,7,7,87,30.4966185429,nV_V,1,30.5015519198,31.7492643249,1,1,0.591512818297,32.3613136235,2,0,0.260811550543,5,6.0,32,bw,99.7814029182,2019_may_13_1606,003,256,20,5,leyre,Experiment_EEG_version,20,
Living_Things,../experiment_stimuli/bw_bc_bl/Living_Things/Animals/zebra_18.jpg,Animals,0,zebra,0,8,8,95,34.3550087886,nV_V,2,34.360553401,35.5976111545,1,2,0.892168060993,36.5103375716,2,0,0.220696448348,5,6.0,32,bw,99.7814029182,2019_may_13_1606,003,256,20,5,leyre,Experiment_EEG_version,20,
Nonliving_Things,../experiment_stimuli/bw_bc_bl/Nonliving_Things/Buildings/church_4.jpg,Buildings,0,church,0,9,9,17,38.4639407996,nV_V,1,38.4688465679,39.6965197638,1,1,0.310896543902,40.0279733065,3,0,0.310893412214,5,6.0,32,bw,99.7814029182,2019_may_13_1606,003,256,20,5,leyre,Experiment_EEG_version,20,
Nonliving_Things,../experiment_stimuli/bw_bc_bl/Nonliving_Things/Musical_Inst/drum_11.jpg,Musical_Inst,0,drum,0,10,10,25,42.0717833368,V_nV,2,42.0766781651,43.304358504,0,1,0.160571407177,43.4854938533,1,1,0.300876894034,5,6.0,32,bw,99.7814029182,2019_may_13_1606,003,256,20,5,leyre,Experiment_EEG_version,20,
Living_Things,../experiment_stimuli/bw_bc_bl/Living_Things/Animals/tiger_2.jpg,Animals,0,tiger,0,11,11,84,45.5192831774,nV_V,2,45.5241428337,46.7618768403,0,1,0.491367880197,47.2738002531,1,1,0.310893758025,5,6.5,32,bw,99.7814029182,2019_may_13_1606,003,256,20,5,leyre,Experiment_EEG_version,20,
Living_Things,../experiment_stimuli/bw_bc_bl/Living_Things/Birds/partridge_2.jpg,Birds,0,partridge,0,12,12,59,49.3175319838,V_nV,1,49.3224562817,50.5901967498,1,1,0.621598108904,51.2323601735,1,1,0.260782253754,5,7.0,32,bw,99.7814029182,2019_may_13_1606,003,256,20,5,leyre,Experiment_EEG_version,20,
Living_Things,../experiment_stimuli/bw_bc_bl/Living_Things/Birds/kiwi_8.jpg,Birds,0,kiwi,0,13,13,44,53.2260257676,V_nV,1,53.2309572122,54.5287613475,1,1,0.591507957259,55.1408107249,3,0,0.290849049052,5,6.0,32,bw,99.7814029182,2019_may_13_1606,003,256,20,5,leyre,Experiment_EEG_version,20,
Nonliving_Things,../experiment_stimuli/bw_bc_bl/Nonliving_Things/Kitchen_Uten/coking-pot_12.jpg,Kitchen_Uten,0,coking-pot,0,14,14,18,57.1645856436,nV_V,1,57.1694475063,58.4372648641,1,1,0.721918348805,59.179723701,2,0,0.310894442257,5,7.0,32,bw,99.7814029182,2019_may_13_1606,003,256,20,5,leyre,Experiment_EEG_version,20,
Nonliving_Things,../experiment_stimuli/bw_bc_bl/Nonliving_Things/Furniture/lamp_13.jpg,Furniture,0,lamp,0,15,15,46,61.2234049924,V_nV,2,61.2282473517,62.4860673076,1,2,0.551424272067,63.0580383908,3,0,0.260784321756,5,6.0,32,bw,99.7814029182,2019_may_13_1606,003,256,20,5,leyre,Experiment_EEG_version,20,
Nonliving_Things,../experiment_stimuli/bw_bc_bl/Nonliving_Things/Furniture/bedside-table_8.jpg,Furniture,0,bedside-table,0,16,16,6,65.0517347252,V_nV,2,65.0567061313,66.2843216066,0,1,0.571319419367,66.8762035058,1,1,0.300912224338,5,6.0,32,bw,99.7814029182,2019_may_13_1606,003,256,20,5,leyre,Experiment_EEG_version,20,
Nonliving_Things,../experiment_stimuli/bw_bc_bl/Nonliving_Things/Musical_Inst/guitar_10.jpg,Musical_Inst,0,guitar,0,17,17,36,68.9101168283,nV_V,1,68.9150352992,70.1727645157,1,1,0.541403490817,70.7347120016,3,0,0.270828185428,5,6.0,32,bw,99.7814029182,2019_may_13_1606,003,256,20,5,leyre,Experiment_EEG_version,20,
Living_Things,../experiment_stimuli/bw_bc_bl/Living_Things/Marine_creatures/whale_19.jpg,Marine_creatures,0,whale,0,18,18,94,72.7384379858,nV_V,2,72.7446445135,73.9710248181,0,1,0.0202755402424,74.0118608538,2,0,0.250616523612,5,6.0,32,bw,99.7814029182,2019_may_13_1606,003,256,20,5,leyre,Experiment_EEG_version,20,
Living_Things,../experiment_stimuli/bw_bc_bl/Living_Things/Animals/lioness_16.jpg,Animals,0,lioness,0,19,19,48,75.9955133056,nV_V,2,76.0004188483,77.2281015367,0,1,0.37103404355,77.619688282,1,1,0.421148735448,5,7.0,32,bw,99.7814029182,2019_may_13_1606,003,256,20,5,leyre,Experiment_EEG_version,20,
Nonliving_Things,../experiment_stimuli/bw_bc_bl/Nonliving_Things/Furniture/Chest-of-drawers_12.jpg,Furniture,0,Chest-of-drawers,0,20,20,0,79.7737366393,nV_V,1,79.7786357009,81.0363842254,1,1,0.52135602216,81.5782909571,3,0,0.481120711134,5,6.5,32,bw,99.7814029182,2019_may_13_1606,003,256,20,5,leyre,Experiment_EEG_version,20,
Nonliving_Things,../experiment_stimuli/bw_bc_bl/Nonliving_Things/Buildings/palace_11.jpg,Buildings,0,palace,0,21,21,58,83.7924695436,nV_V,1,83.7974867839,85.025050628,0,2,0.481271961064,85.5268628587,1,1,0.290851845988,5,6.5,32,bw,99.7814029182,2019_may_13_1606,003,256,20,5,leyre,Experiment_EEG_version,20,
Living_Things,../experiment_stimuli/bw_bc_bl/Living_Things/Animals/elephant_18.jpg,Animals,0,elephant,0,22,22,27,87.5506360217,V_nV,1,87.5555407109,88.8132821607,0,2,0.431162388995,89.2649962364,1,1,0.270809091511,5,6.0,32,bw,99.7814029182,2019_may_13_1606,003,256,20,5,leyre,Experiment_EEG_version,20,
Living_Things,../experiment_stimuli/bw_bc_bl/Living_Things/Marine_creatures/sperm-whale_13.jpg,Marine_creatures,0,sperm-whale,0,23,23,80,91.2687200176,nV_V,2,91.2750208483,92.5514044221,1,2,0.59151905129,93.163487201,1,1,0.250758855953,5,6.0,32,bw,99.7814029182,2019_may_13_1606,003,256,20,5,leyre,Experiment_EEG_version,20,
Living_Things,../experiment_stimuli/bw_bc_bl/Living_Things/Marine_creatures/crab_7.jpg,Marine_creatures,0,crab,0,24,24,21,95.1471524912,nV_V,2,95.1521103941,96.4498896275,1,2,0.882141396462,97.3525879962,3,0,0.230736255471,5,8.0,32,bw,99.7814029182,2019_may_13_1606,003,256,20,5,leyre,Experiment_EEG_version,20,
Living_Things,../experiment_stimuli/bw_bc_bl/Living_Things/Birds/owl_25.jpg,Birds,0,owl,0,25,25,57,99.3162166937,nV_V,2,99.3211487172,100.588875396,1,2,0.631649758376,101.241073447,2,0,0.330932835932,5,6.5,32,bw,99.7814029182,2019_may_13_1606,003,256,20,5,leyre,Experiment_EEG_version,20,
Nonliving_Things,../experiment_stimuli/bw_bc_bl/Nonliving_Things/Buildings/mill_8.jpg,Buildings,0,mill,0,26,26,53,103.304885243,nV_V,1,103.309915156,104.567528085,0,2,0.370877041831,104.968992241,3,0,0.320922606916,5,7.0,32,bw,99.7814029182,2019_may_13_1606,003,256,20,5,leyre,Experiment_EEG_version,20,
Living_Things,../experiment_stimuli/bw_bc_bl/Living_Things/Marine_creatures/dolphin_23.jpg,Marine_creatures,0,dolphin,0,27,27,23,107.022966193,nV_V,2,107.028053309,108.265564901,1,2,0.411144777026,108.697258061,1,1,0.310901998542,5,7.0,32,bw,99.7814029182,2019_may_13_1606,003,256,20,5,leyre,Experiment_EEG_version,20,
Nonliving_Things,../experiment_stimuli/bw_bc_bl/Nonliving_Things/Musical_Inst/tuba_25.jpg,Musical_Inst,0,tuba,0,28,28,89,110.74104731,nV_V,1,110.746086692,111.993668464,1,1,0.962314909906,112.976536576,2,0,0.361021325865,5,7.5,32,bw,99.7814029182,2019_may_13_1606,003,256,20,5,leyre,Experiment_EEG_version,20,
Living_Things,../experiment_stimuli/bw_bc_bl/Living_Things/Insects/butterfly_9.jpg,Insects,0,butterfly,0,29,29,10,115.070454855,nV_V,2,115.075303109,116.313057796,1,2,0.491289704398,116.824895522,1,1,0.541394396743,5,6.0,32,bw,99.7814029182,2019_may_13_1606,003,256,20,5,leyre,Experiment_EEG_version,20,
Nonliving_Things,../experiment_stimuli/bw_bc_bl/Nonliving_Things/Kitchen_Uten/fondue_15.jpg,Kitchen_Uten,0,fondue,0,30,30,30,119.0992091,nV_V,1,119.1040169,120.351838706,1,1,0.731816297688,121.104211848,3,0,0.320935268363,5,6.5,32,bw,99.7814029182,2019_may_13_1606,003,256,20,5,leyre,Experiment_EEG_version,20,
Living_Things,../experiment_stimuli/bw_bc_bl/Living_Things/Birds/goldfinch_14.jpg,Birds,0,goldfinch,0,31,31,33,123.158042656,V_nV,1,123.16388199,124.390625774,0,2,0.350984375458,124.762158916,1,1,0.290850684163,5,6.5,32,bw,99.7814029182,2019_may_13_1606,003,256,20,5,leyre,Experiment_EEG_version,20,
Living_Things,../experiment_stimuli/bw_bc_bl/Living_Things/Birds/duck_25.jpg,Birds,0,duck,0,32,32,26,126.78592859,V_nV,1,126.790898169,128.048568188,1,1,0.330889930308,128.400061372,2,0,0.250791881932,5,6.0,32,bw,99.7814029182,2019_may_13_1606,003,256,20,5,leyre,Experiment_EEG_version,20,
Living_Things,../experiment_stimuli/bw_bc_bl/Living_Things/Animals/lynx_26.jpg,Animals,0,lynx,0,33,33,50,130.383742677,V_nV,1,130.388862179,131.636367331,1,1,0.420983117307,132.077893711,2,0,0.270806388347,5,6.0,32,bw,99.7814029182,2019_may_13_1606,003,256,20,5,leyre,Experiment_EEG_version,20,
Nonliving_Things,../experiment_stimuli/bw_bc_bl/Nonliving_Things/Tools/axe_11.jpg,Tools,0,axe,0,34,34,3,134.081780437,nV_V,1,134.087628015,135.324395438,1,1,0.521358292724,135.866296884,2,0,0.340963316325,5,6.5,32,bw,99.7814029182,2019_may_13_1606,003,256,20,5,leyre,Experiment_EEG_version,20,
Living_Things,../experiment_stimuli/bw_bc_bl/Living_Things/Marine_creatures/pomfret_4.jpg,Marine_creatures,0,pomfret,0,35,35,65,137.940169299,nV_V,2,137.945051538,139.172748282,1,2,0.521378623263,139.714695844,1,1,0.290846364514,5,7.5,32,bw,99.7814029182,2019_may_13_1606,003,256,20,5,leyre,Experiment_EEG_version,20,
Living_Things,../experiment_stimuli/bw_bc_bl/Living_Things/Marine_creatures/manatee_20.jpg,Marine_creatures,0,manatee,0,36,36,52,141.738426128,nV_V,2,141.744299458,142.991049459,1,2,0.531397351995,143.542996592,1,1,0.320922103187,5,6.5,32,bw,99.7814029182,2019_may_13_1606,003,256,20,5,leyre,Experiment_EEG_version,20,
Nonliving_Things,../experiment_stimuli/bw_bc_bl/Nonliving_Things/Kitchen_Uten/cup_4.jpg,Kitchen_Uten,0,cup,0,37,37,22,145.596812852,nV_V,1,145.601605618,146.869478666,1,1,0.35098977387,147.24101809,3,0,0.250756923982,5,6.5,32,bw,99.7814029182,2019_may_13_1606,003,256,20,5,leyre,Experiment_EEG_version,20,
Nonliving_Things,../experiment_stimuli/bw_bc_bl/Nonliving_Things/Furniture/bed_24.jpg,Furniture,0,bed,0,38,38,5,149.224700316,nV_V,1,149.230470128,150.467298388,1,1,0.350993965694,150.838838372,2,0,0.28082788788,5,6.0,32,bw,99.7814029182,2019_may_13_1606,003,256,20,5,leyre,Experiment_EEG_version,20,
Nonliving_Things,../experiment_stimuli/bw_bc_bl/Nonliving_Things/Musical_Inst/violin_10.jpg,Musical_Inst,0,violin,0,39,39,92,152.852581036,nV_V,1,152.857583426,154.085165421,1,1,0.361019555014,154.466756753,2,0,0.320939757046,5,6.0,32,bw,99.7814029182,2019_may_13_1606,003,256,20,5,leyre,Experiment_EEG_version,20,
Living_Things,../experiment_stimuli/bw_bc_bl/Living_Things/Insects/scorpion_6.jpg,Insects,0,scorpion,0,40,40,73,156.520552738,V_nV,1,156.525527426,157.753154893,1,1,0.551429038984,158.3251048,1,1,0.230724793393,5,6.5,32,bw,99.7814029182,2019_may_13_1606,003,256,20,5,leyre,Experiment_EEG_version,20,
Nonliving_Things,../experiment_stimuli/bw_bc_bl/Nonliving_Things/Furniture/sofa_22.jpg,Furniture,0,sofa,0,41,41,78,160.288752689,nV_V,1,160.293505673,161.541375339,1,1,1.01245077443,162.57437579,1,1,0.220694542164,5,6.5,32,bw,99.7814029182,2019_may_13_1606,003,256,20,5,leyre,Experiment_EEG_version,20,
Nonliving_Things,../experiment_stimuli/bw_bc_bl/Nonliving_Things/Vehicles/plane_0.jpg,Vehicles,0,plane,0,42,42,64,164.527992601,V_nV,2,164.532939488,165.810657377,0,1,0.411122033023,166.242330594,2,0,0.260784193932,5,6.0,32,bw,99.7814029182,2019_may_13_1606,003,256,20,5,leyre,Experiment_EEG_version,20,
Living_Things,../experiment_stimuli/bw_bc_bl/Living_Things/Birds/hen_15.jpg,Birds,0,hen,0,43,43,38,168.236025015,V_nV,1,168.240924561,169.508691702,1,1,0.701769163716,170.231026311,2,0,0.230718496721,5,7.5,32,bw,99.7814029182,2019_may_13_1606,003,256,20,5,leyre,Experiment_EEG_version,20,
Living_Things,../experiment_stimuli/bw_bc_bl/Living_Things/Birds/hummingbird_2.jpg,Birds,0,hummingbird,0,44,44,42,172.194631438,V_nV,1,172.199587081,173.457272874,1,1,0.391073252773,173.868930226,3,0,0.340959947614,5,6.0,32,bw,99.7814029182,2019_may_13_1606,003,256,20,5,leyre,Experiment_EEG_version,20,
Nonliving_Things,../experiment_stimuli/bw_bc_bl/Nonliving_Things/Furniture/rocking-chair_25.jpg,Furniture,0,rocking-chair,0,45,45,69,175.942774552,nV_V,1,175.9489727,177.175358926,1,1,0.581499450374,177.777411431,2,0,0.411139390082,5,6.0,32,bw,99.7814029182,2019_may_13_1606,003,256,20,5,leyre,Experiment_EEG_version,20,
Living_Things,../experiment_stimuli/bw_bc_bl/Living_Things/Marine_creatures/lobster_26.jpg,Marine_creatures,0,lobster,0,46,46,49,179.921433128,nV_V,2,179.92639229,181.154019494,1,2,0.3509934881,181.525538489,1,1,0.240743541101,5,6.0,32,bw,99.7814029182,2019_may_13_1606,003,256,20,5,leyre,Experiment_EEG_version,20,
Living_Things,../experiment_stimuli/bw_bc_bl/Living_Things/Animals/cheetah_7.jpg,Animals,0,cheetah,0,47,47,16,183.499202569,nV_V,2,183.504176799,184.751828213,0,1,0.531373638019,185.303766639,1,1,0.20064070943,5,6.0,32,bw,99.7814029182,2019_may_13_1606,003,256,20,5,leyre,Experiment_EEG_version,20,
Nonliving_Things,../experiment_stimuli/bw_bc_bl/Nonliving_Things/Vehicles/bus_18.jpg,Vehicles,0,bus,0,48,48,9,187.237329316,V_nV,2,187.242190513,188.499987176,1,2,0.611554426025,189.132075315,3,0,0.200646528858,5,6.5,32,bw,99.7814029182,2019_may_13_1606,003,256,20,5,leyre,Experiment_EEG_version,20,
Nonliving_Things,../experiment_stimuli/bw_bc_bl/Nonliving_Things/Furniture/wardrobe_10.jpg,Furniture,0,wardrobe,0,49,49,93,191.0656533,V_nV,2,191.070593613,192.308265801,1,2,0.320944839681,192.649771707,1,1,0.230715210666,5,7.5,32,bw,99.7814029182,2019_may_13_1606,003,256,20,5,leyre,Experiment_EEG_version,20,
Living_Things,../experiment_stimuli/bw_bc_bl/Living_Things/Animals/cow_9.jpg,Animals,0,cow,0,50,50,20,194.613364717,V_nV,1,194.618383446,195.886030716,0,2,0.631599450775,196.538188891,3,0,0.230720951397,5,6.5,32,bw,99.7814029182,2019_may_13_1606,003,256,20,5,leyre,Experiment_EEG_version,20,
Nonliving_Things,../experiment_stimuli/bw_bc_bl/Nonliving_Things/Furniture/bookcase_8.jpg,Furniture,0,bookcase,0,51,51,8,198.501816062,V_nV,2,198.506598919,199.744432529,1,2,0.320941369631,200.085928646,1,1,0.250760029245,5,7.0,32,bw,99.7814029182,2019_may_13_1606,003,256,20,5,leyre,Experiment_EEG_version,20,
Living_Things,../experiment_stimuli/bw_bc_bl/Living_Things/Animals/armadillo_7.jpg,Animals,0,armadillo,0,52,52,1,202.069571978,V_nV,1,202.074488066,203.332214966,0,2,0.371035460616,203.7238034,1,1,0.230722263223,5,6.0,32,bw,99.7814029182,2019_may_13_1606,003,256,20,5,leyre,Experiment_EEG_version,20,
Nonliving_Things,../experiment_stimuli/bw_bc_bl/Nonliving_Things/Vehicles/boat_21.jpg,Vehicles,0,boat,0,53,53,7,205.687455232,nV_V,1,205.69241921,206.960103999,0,2,0.431183320994,207.411847093,1,1,0.36101039371,5,6.0,32,bw,99.7814029182,2019_may_13_1606,003,256,20,5,leyre,Experiment_EEG_version,20,
Living_Things,../experiment_stimuli/bw_bc_bl/Living_Things/Insects/dragonfly_10.jpg,Insects,0,dragonfly,0,54,54,24,209.505737864,nV_V,2,209.511856983,210.798457682,1,2,0.591506378376,211.410503476,3,0,0.260957044666,5,6.0,32,bw,99.7814029182,2019_may_13_1606,003,256,20,5,leyre,Experiment_EEG_version,20,
Nonliving_Things,../experiment_stimuli/bw_bc_bl/Nonliving_Things/Kitchen_Uten/pot_24.jpg,Kitchen_Uten,0,pot,0,55,55,66,213.404205551,nV_V,1,213.410256555,214.676877949,1,1,0.340974552848,215.038411012,3,0,0.29084871785,5,8.0,32,bw,99.7814029182,2019_may_13_1606,003,256,20,5,leyre,Experiment_EEG_version,20,
Living_Things,../experiment_stimuli/bw_bc_bl/Living_Things/Animals/rhino_12.jpg,Animals,0,rhino,0,56,56,68,217.062181415,nV_V,2,217.067035192,218.314784814,1,2,0.361027603969,218.696377011,1,1,0.260774923023,5,6.0,32,bw,99.7814029182,2019_may_13_1606,003,256,20,5,leyre,Experiment_EEG_version,20,
Living_Things,../experiment_stimuli/bw_bc_bl/Living_Things/Birds/pelican_13.jpg,Birds,0,pelican,0,57,57,60,220.690063534,V_nV,1,220.696283554,221.972738724,1,1,0.761882584891,222.75517289,2,0,0.200652419589,5,6.0,32,bw,99.7814029182,2019_may_13_1606,003,256,20,5,leyre,Experiment_EEG_version,20,
Living_Things,../experiment_stimuli/bw_bc_bl/Living_Things/Birds/toucan_6.jpg,Birds,0,toucan,0,58,58,85,224.688746116,nV_V,2,224.693638535,225.961413145,1,2,0.491300542781,226.473251578,2,0,0.340960391564,5,6.0,32,bw,99.7814029182,2019_may_13_1606,003,256,20,5,leyre,Experiment_EEG_version,20,
Nonliving_Things,../experiment_stimuli/bw_bc_bl/Nonliving_Things/Kitchen_Uten/teapot_17.jpg,Kitchen_Uten,0,teapot,0,59,59,83,228.547131234,nV_V,1,228.552004901,229.80977699,1,1,0.411121743673,230.241447202,1,1,0.200656491157,5,6.0,32,bw,99.7814029182,2019_may_13_1606,003,256,20,5,leyre,Experiment_EEG_version,20,
Living_Things,../experiment_stimuli/bw_bc_bl/Living_Things/Marine_creatures/killer-whale_21.jpg,Marine_creatures,0,killer-whale,0,60,60,43,232.175014928,nV_V,2,232.18027139,233.467724632,1,2,0.601534569112,234.089838181,3,0,0.180616601254,5,7.5,32,bw,99.7814029182,2019_may_13_1606,003,256,20,5,leyre,Experiment_EEG_version,20,
Nonliving_Things,../experiment_stimuli/bw_bc_bl/Nonliving_Things/Vehicles/van_23.jpg,Vehicles,0,van,0,61,61,91,236.003337224,nV_V,1,236.009499336,237.266002468,1,1,0.36101073958,237.647555459,3,0,0.250757435279,5,6.0,32,bw,99.7814029182,2019_may_13_1606,003,256,20,5,leyre,Experiment_EEG_version,20,
Nonliving_Things,../experiment_stimuli/bw_bc_bl/Nonliving_Things/Kitchen_Uten/saucepan_24.jpg,Kitchen_Uten,0,saucepan,0,62,62,71,239.631221568,nV_V,1,239.636080935,240.873842261,1,1,0.471252833784,241.365633545,1,1,0.180958709156,5,6.0,32,bw,99.7814029182,2019_may_13_1606,003,256,20,5,leyre,Experiment_EEG_version,20,
Living_Things,../experiment_stimuli/bw_bc_bl/Living_Things/Marine_creatures/narwhal_15.jpg,Marine_creatures,0,narwhal,0,63,63,55,243.279184907,V_nV,1,243.284081829,244.551817549,1,1,0.671706105873,245.254097984,2,0,0.220705305343,5,6.0,32,bw,99.7814029182,2019_may_13_1606,003,256,20,5,leyre,Experiment_EEG_version,20,
Living_Things,../experiment_stimuli/bw_bc_bl/Living_Things/Birds/pigeon_2.jpg,Birds,0,pigeon,0,64,64,63,247.207691062,nV_V,2,247.212914675,248.470337697,0,1,0.371188909572,248.862100289,2,0,0.441177655186,5,6.0,32,bw,99.7814029182,2019_may_13_1606,003,256,20,5,leyre,Experiment_EEG_version,20,
Nonliving_Things,../experiment_stimuli/bw_bc_bl/Nonliving_Things/Musical_Inst/saxophone_10.jpg,Musical_Inst,0,saxophone,0,65,65,72,251.036010272,V_nV,2,251.041086918,252.288640505,0,1,0.611556203978,252.930774351,2,0,0.290875586099,5,6.0,32,bw,99.7814029182,2019_may_13_1606,003,256,20,5,leyre,Experiment_EEG_version,20,
Nonliving_Things,../experiment_stimuli/bw_bc_bl/Nonliving_Things/Buildings/house_7.jpg,Buildings,0,house,0,66,66,41,254.954529814,V_nV,2,254.959354227,256.19713883,0,1,0.300902949821,256.518612663,2,0,0.20067884383,5,6.5,32,bw,99.7814029182,2019_may_13_1606,003,256,20,5,leyre,Experiment_EEG_version,20,
Nonliving_Things,../experiment_stimuli/bw_bc_bl/Nonliving_Things/Furniture/lectern_1.jpg,Furniture,0,lectern,0,67,67,47,258.452153543,nV_V,1,258.45694211,259.684736451,1,1,0.350991477026,260.056271731,1,1,0.240744101058,5,6.0,32,bw,99.7814029182,2019_may_13_1606,003,256,20,5,leyre,Experiment_EEG_version,20,
Nonliving_Things,../experiment_stimuli/bw_bc_bl/Nonliving_Things/Kitchen_Uten/frying-pan_12.jpg,Kitchen_Uten,0,frying-pan,0,68,68,31,262.02991733,nV_V,1,262.034625955,263.282533936,1,1,0.58148463862,263.88458281,2,0,0.240747943055,5,6.5,32,bw,99.7814029182,2019_may_13_1606,003,256,20,5,leyre,Experiment_EEG_version,20,
Nonliving_Things,../experiment_stimuli/bw_bc_bl/Nonliving_Things/Vehicles/motorbike_16.jpg,Vehicles,0,motorbike,0,69,69,54,265.858234928,nV_V,1,265.863092561,267.090819452,1,1,0.320925377717,267.432295339,1,1,0.180609052477,5,6.0,32,bw,99.7814029182,2019_may_13_1606,003,256,20,5,leyre,Experiment_EEG_version,20,
Living_Things,../experiment_stimuli/bw_bc_bl/Living_Things/Birds/barn-owl_10.jpg,Birds,0,barn-owl,0,70,70,4,269.345829427,nV_V,2,269.350770642,270.608465205,1,2,0.731813523278,271.3609062,1,1,0.230902809824,5,6.0,32,bw,99.7814029182,2019_may_13_1606,003,256,20,5,leyre,Experiment_EEG_version,20,
Nonliving_Things,../experiment_stimuli/bw_bc_bl/Nonliving_Things/Vehicles/car_17.jpg,Vehicles,0,car,0,71,71,11,273.324462564,V_nV,2,273.329305273,274.607156667,1,2,0.601553835964,275.229277803,3,0,0.210692020191,5,6.0,32,bw,99.7814029182,2019_may_13_1606,003,256,20,5,leyre,Experiment_EEG_version,20,
Living_Things,../experiment_stimuli/bw_bc_bl/Living_Things/Birds/rooster_25.jpg,Birds,0,rooster,0,72,72,70,277.172826833,V_nV,1,277.177643012,278.435479757,1,1,0.751860559103,279.207902315,2,0,0.260808903899,5,6.0,32,bw,99.7814029182,2019_may_13_1606,003,256,20,5,leyre,Experiment_EEG_version,20,
Living_Things,../experiment_stimuli/bw_bc_bl/Living_Things/Animals/turtle_10.jpg,Animals,0,turtle,0,73,73,90,281.201599056,V_nV,1,281.206445949,282.444227793,0,2,0.350987477112,282.815736698,3,0,0.220694737684,5,7.5,32,bw,99.7814029182,2019_may_13_1606,003,256,20,5,leyre,Experiment_EEG_version,20,
Nonliving_Things,../experiment_stimuli/bw_bc_bl/Nonliving_Things/Vehicles/ship_6.jpg,Vehicles,0,ship,0,74,74,76,284.76934443,nV_V,1,284.774129873,286.001922943,0,2,0.451209617138,286.473704905,1,1,0.872127957351,5,7.5,32,bw,99.7814029182,2019_may_13_1606,003,256,20,5,leyre,Experiment_EEG_version,20,
Living_Things,../experiment_stimuli/bw_bc_bl/Living_Things/Birds/raven_3.jpg,Birds,0,raven,0,75,75,67,289.078712029,V_nV,1,289.083559016,290.341356916,0,2,0.561574450054,290.923502361,2,0,0.220706899243,5,6.0,32,bw,99.7814029182,2019_may_13_1606,003,256,20,5,leyre,Experiment_EEG_version,20,
Nonliving_Things,../experiment_stimuli/bw_bc_bl/Nonliving_Things/Buildings/factory_18.jpg,Buildings,0,factory,0,76,76,28,292.876968272,nV_V,1,292.883211645,294.119572517,0,2,0.320925794833,294.46107684,1,1,0.240744732611,5,6.0,32,bw,99.7814029182,2019_may_13_1606,003,256,20,5,leyre,Experiment_EEG_version,20,
Nonliving_Things,../experiment_stimuli/bw_bc_bl/Nonliving_Things/Furniture/armchair_8.jpg,Furniture,0,armchair,0,77,77,2,296.434728924,V_nV,2,296.439456725,297.69735227,1,2,0.771902561712,298.489809673,2,0,0.250757792208,5,6.0,32,bw,99.7814029182,2019_may_13_1606,003,256,20,5,leyre,Experiment_EEG_version,20,
Living_Things,../experiment_stimuli/bw_bc_bl/Living_Things/Birds/sparrow_11.jpg,Birds,0,sparrow,0,78,78,79,300.473483955,nV_V,2,300.47841993,301.726108373,1,2,0.841896126803,302.588542946,2,0,0.240741367859,5,8.0,32,bw,99.7814029182,2019_may_13_1606,003,256,20,5,leyre,Experiment_EEG_version,20,
Nonliving_Things,../experiment_stimuli/bw_bc_bl/Nonliving_Things/Musical_Inst/piano__19.jpg,Musical_Inst,0,piano,0,79,79,62,304.562369998,nV_V,1,304.567222037,305.814993998,0,2,0.541401028226,306.376951089,2,0,0.260776295327,5,7.0,32,bw,99.7814029182,2019_may_13_1606,003,256,20,5,leyre,Experiment_EEG_version,20,
Living_Things,../experiment_stimuli/bw_bc_bl/Living_Things/Insects/ladybird_6.jpg,Insects,0,ladybird,0,80,80,45,308.370649255,nV_V,2,308.375472355,309.603231174,0,1,0.581493405043,310.205290829,1,1,0.260784419137,5,6.0,32,bw,99.7814029182,2019_may_13_1606,003,256,20,5,leyre,Experiment_EEG_version,20,
Nonliving_Things,../experiment_stimuli/bw_bc_bl/Nonliving_Things/Musical_Inst/trumpet_16.jpg,Musical_Inst,0,trumpet,0,81,81,88,312.198975709,V_nV,2,312.203840632,313.461616923,1,2,0.541407847777,314.023590266,1,1,0.29085932317,5,6.5,32,bw,99.7814029182,2019_may_13_1606,003,256,20,5,leyre,Experiment_EEG_version,20,
Living_Things,../experiment_stimuli/bw_bc_bl/Living_Things/Birds/goose_22.jpg,Birds,0,goose,0,82,82,34,316.047332692,nV_V,2,316.052166402,317.35007093,1,2,0.70175035228,318.072374443,3,0,0.24074439425,5,7.0,32,bw,99.7814029182,2019_may_13_1606,003,256,20,5,leyre,Experiment_EEG_version,20,
Living_Things,../experiment_stimuli/bw_bc_bl/Living_Things/Birds/magpie_22.jpg,Birds,0,magpie,0,83,83,51,320.046024312,nV_V,2,320.050887209,321.318696729,1,2,0.481291107193,321.820532474,1,1,0.270802580286,5,6.5,32,bw,99.7814029182,2019_may_13_1606,003,256,20,5,leyre,Experiment_EEG_version,20,
Nonliving_Things,../experiment_stimuli/bw_bc_bl/Nonliving_Things/Tools/hammer_14.jpg,Tools,0,hammer,0,84,84,37,323.824238037,V_nV,2,323.832023309,325.116959689,0,1,0.912208270223,326.049717383,1,1,0.451214801054,5,7.0,32,bw,99.7814029182,2019_may_13_1606,003,256,20,5,leyre,Experiment_EEG_version,20,
Nonliving_Things,../experiment_stimuli/bw_bc_bl/Nonliving_Things/Furniture/table_1.jpg,Furniture,0,table,0,85,85,81,328.233825175,nV_V,1,328.240177757,329.536562751,1,1,0.62157884601,330.178705584,3,0,0.260811745946,5,6.5,32,bw,99.7814029182,2019_may_13_1606,003,256,20,5,leyre,Experiment_EEG_version,20,
Living_Things,../experiment_stimuli/bw_bc_bl/Living_Things/Animals/giraffe_3.jpg,Animals,0,giraffe,0,86,86,32,332.172386077,nV_V,2,332.177345115,333.455077616,1,2,0.681713248312,334.157373837,3,0,0.190625461517,5,6.5,32,bw,99.7814029182,2019_may_13_1606,003,256,20,5,leyre,Experiment_EEG_version,20,
Nonliving_Things,../experiment_stimuli/bw_bc_bl/Nonliving_Things/Buildings/cathedral_4.jpg,Buildings,0,cathedral,0,87,87,14,336.080881394,V_nV,2,336.087255608,337.343533259,1,2,0.661505920754,338.025602396,3,0,0.240742356691,5,6.0,32,bw,99.7814029182,2019_may_13_1606,003,256,20,5,leyre,Experiment_EEG_version,20,
Living_Things,../experiment_stimuli/bw_bc_bl/Living_Things/Marine_creatures/shark_10.jpg,Marine_creatures,0,shark,0,88,88,75,339.999404159,V_nV,1,340.004274123,341.242009637,1,1,0.381057132734,341.643618886,2,0,0.230722970329,5,6.0,32,bw,99.7814029182,2019_may_13_1606,003,256,20,5,leyre,Experiment_EEG_version,20,
Nonliving_Things,../experiment_stimuli/bw_bc_bl/Nonliving_Things/Buildings/granary_17.jpg,Buildings,0,granary,0,89,89,35,343.607246654,nV_V,1,343.612137479,344.849851648,0,2,0.240768292628,345.111174112,1,1,0.220694297983,5,7.5,32,bw,99.7814029182,2019_may_13_1606,003,256,20,5,leyre,Experiment_EEG_version,20,
Nonliving_Things,../experiment_stimuli/bw_bc_bl/Nonliving_Things/Kitchen_Uten/small-saucepan_7.jpg,Kitchen_Uten,0,small-saucepan,0,90,90,77,347.0647654,V_nV,2,347.06963947,348.337430723,1,2,0.541400201211,348.899393408,1,1,0.260787922831,5,6.5,32,bw,99.7814029182,2019_may_13_1606,003,256,20,5,leyre,Experiment_EEG_version,20,
Living_Things,../experiment_stimuli/bw_bc_bl/Living_Things/Birds/seagull_2.jpg,Birds,0,seagull,0,91,91,74,350.893079103,nV_V,2,350.901264651,352.175773872,1,2,0.561445297615,352.757799672,3,0,0.230719282234,5,6.0,32,bw,99.7814029182,2019_may_13_1606,003,256,20,5,leyre,Experiment_EEG_version,20,
Living_Things,../experiment_stimuli/bw_bc_bl/Living_Things/Animals/hippopotamus_18.jpg,Animals,0,hippopotamus,0,92,92,39,354.721403332,nV_V,2,354.72624438,355.964010401,1,2,0.571313032415,356.555875244,1,1,0.2908523308,5,6.5,32,bw,99.7814029182,2019_may_13_1606,003,256,20,5,leyre,Experiment_EEG_version,20,
Nonliving_Things,../experiment_stimuli/bw_bc_bl/Nonliving_Things/Furniture/couch_14.jpg,Furniture,0,couch,0,93,93,19,358.579789563,V_nV,2,358.584541597,359.85246187,1,2,0.741836319561,360.614857831,2,0,0.431155885337,5,6.5,32,bw,99.7814029182,2019_may_13_1606,003,256,20,5,leyre,Experiment_EEG_version,20,
Living_Things,../experiment_stimuli/bw_bc_bl/Living_Things/Birds/penguin_26.jpg,Birds,0,penguin,0,94,94,61,362.778923312,V_nV,1,362.783799468,364.041577128,1,1,0.610893728328,364.673671271,2,0,0.421121371328,5,6.0,32,bw,99.7814029182,2019_may_13_1606,003,256,20,5,leyre,Experiment_EEG_version,20,
Nonliving_Things,../experiment_stimuli/bw_bc_bl/Nonliving_Things/Furniture/filling-cabinet_14.jpg,Furniture,0,filling-cabinet,0,95,95,29,366.827721843,V_nV,2,366.832837645,368.080346749,1,2,0.621575458965,368.722491955,1,1,0.320939200639,5,6.0,32,bw,99.7814029182,2019_may_13_1606,003,256,20,5,leyre,Experiment_EEG_version,20,
